stimType,stimID,thisRow.t,transparent,idiom,word,sentPos,readingTimes,questionCorrect,participantAnswer,trials.trialKey.rt,trials.trialKey.keys,trials.questionKey.rt,trials.questionKey.keys,trials.pauseKey.rt,trials.pauseKey.keys,trialKey.rt,trialKey.keys,questionKey.rt,questionKey.keys,practice.trialKey.rt,practice.trialKey.keys,practice.questionKey.rt,practice.questionKey.keys,pauseKey.rt,pauseKey.keys,participant,notes,keyWelcome.rt,keyWelcome.keys,keyStart.rt,keyStart.keys,keyEnd.rt,keyEnd.keys,frameRate,expName,welcome.stopped,welcome.started,trials.trialKey.duration,trials.thisTrialN,trials.thisRepN,trials.thisN,trials.thisIndex,trials.questionKey.duration,trials.pauseKey.duration,trialText.started,trialKey.started,trialKey.duration,trial.stopped,trial.started,thisTrialN,thisRepN,thisN,start.stopped,start.started,session,questionText.started,questionKey.started,questionKey.duration,question.stopped,question.started,psychopyVersion,practice.trialKey.duration,practice.thisTrialN,practice.thisRepN,practice.thisN,practice.thisIndex,practice.questionKey.duration,pauseText.started,pauseKey.started,pauseKey.duration,pause.stopped,pause.started,meaning_literal,meaning_idiomatic,meaning_distractor,keyWelcome.started,keyWelcome.duration,keyStart.started,keyStart.duration,keyEnd.started,keyEnd.duration,fixation.stopped,fixation.started,fix.stopped,fix.started,feedback.stopped,feedback.started,fb.stopped,fb.started,expStart,end.stopped,end.started,date,
,,,,,,,,,,,,,,,,,,,,,,,,,,671836,,6.326587700052187,space,,,,,59.58246989538451,metaphors,6.375017900019884,0.021775799919851124,,,,,,,,,,,,,,,,,,001,,,,,,2024.2.4,,,,,,,,,,,,,,,0.032530699972994626,None,,,,,,,,,,,,,2025-04-04 15h48.35.445944 +0200,,,2025-04-04_15h48.27.831,
practice_f,c,6.39859679993242,1,Hannah staat met haar mond vol brood.,Hannah,0,0.9506188000086695,,,,,,,,,,,,,,,,,,,671836,,,,,,,,59.58246989538451,metaphors,,,,,,,,,,7.398107099928893,7.398107099928893,,,7.385841500014067,0,0,0,,,001,,,,,,2024.2.4,,0,0,0,2,,,,,,,Hannah heeft haar mond vol met brood.,Hannah weet niet wat ze moet zeggen.,Hannah is gulzig en eet veel.,,,,,,,,6.39859679993242,7.3857137999730185,6.387379099964164,,,,,2025-04-04 15h48.35.445944 +0200,,,2025-04-04_15h48.27.831,
practice_f,c,,1,Hannah staat met haar mond vol brood.,staat,1,0.5664062999421731,,,,,,,,,,,,,,,,,,,671836,,,,,,,,59.58246989538451,metaphors,,,,,,,,,,,,,,,0,0,0,,,001,,,,,,2024.2.4,,0,0,0,2,,,,,,,Hannah heeft haar mond vol met brood.,Hannah weet niet wat ze moet zeggen.,Hannah is gulzig en eet veel.,,,,,,,,,,,,,,,2025-04-04 15h48.35.445944 +0200,,,2025-04-04_15h48.27.831,
practice_f,c,,1,Hannah staat met haar mond vol brood.,met,2,0.7499616000568494,,,,,,,,,,,,,,,,,,,671836,,,,,,,,59.58246989538451,metaphors,,,,,,,,,,,,,,,0,0,0,,,001,,,,,,2024.2.4,,0,0,0,2,,,,,,,Hannah heeft haar mond vol met brood.,Hannah weet niet wat ze moet zeggen.,Hannah is gulzig en eet veel.,,,,,,,,,,,,,,,2025-04-04 15h48.35.445944 +0200,,,2025-04-04_15h48.27.831,
practice_f,c,,1,Hannah staat met haar mond vol brood.,haar,3,0.600025000050664,,,,,,,,,,,,,,,,,,,671836,,,,,,,,59.58246989538451,metaphors,,,,,,,,,,,,,,,0,0,0,,,001,,,,,,2024.2.4,,0,0,0,2,,,,,,,Hannah heeft haar mond vol met brood.,Hannah weet niet wat ze moet zeggen.,Hannah is gulzig en eet veel.,,,,,,,,,,,,,,,2025-04-04 15h48.35.445944 +0200,,,2025-04-04_15h48.27.831,
practice_f,c,,1,Hannah staat met haar mond vol brood.,mond,4,0.7328005000017583,,,,,,,,,,,,,,,,,,,671836,,,,,,,,59.58246989538451,metaphors,,,,,,,,,,,,,,,0,0,0,,,001,,,,,,2024.2.4,,0,0,0,2,,,,,,,Hannah heeft haar mond vol met brood.,Hannah weet niet wat ze moet zeggen.,Hannah is gulzig en eet veel.,,,,,,,,,,,,,,,2025-04-04 15h48.35.445944 +0200,,,2025-04-04_15h48.27.831,
practice_f,c,,1,Hannah staat met haar mond vol brood.,vol,5,0.7499967999756336,,,,,,,,,,,,,,,,,,,671836,,,,,,,,59.58246989538451,metaphors,,,,,,,,,,,,,,,0,0,0,,,001,,,,,,2024.2.4,,0,0,0,2,,,,,,,Hannah heeft haar mond vol met brood.,Hannah weet niet wat ze moet zeggen.,Hannah is gulzig en eet veel.,,,,,,,,,,,,,,,2025-04-04 15h48.35.445944 +0200,,,2025-04-04_15h48.27.831,
practice_f,c,,1,Hannah staat met haar mond vol brood.,brood.,6,0.7341463000047952,,,,,,,,,,,,,,,,,,,671836,,,,,,,,59.58246989538451,metaphors,,,,,,,,,,,,,,,0,0,0,,,001,,,,,,2024.2.4,,0,0,0,2,,,,,,,Hannah heeft haar mond vol met brood.,Hannah weet niet wat ze moet zeggen.,Hannah is gulzig en eet veel.,,,,,,,,,,,,,,,2025-04-04 15h48.35.445944 +0200,,,2025-04-04_15h48.27.831,
practice_f,d,21.198024399927817,0,Leon zit in de bus.,Leon,0,0.46657849999610335,1,literal,,,,,,,,,,,5.069673000019975,space,7.6865352999884635,c,,,671836,,,,,,,,59.58246989538451,metaphors,,,,,,,,,,22.19813139992766,22.19813139992766,,12.4716378999874,22.18604850000702,1,0,1,,,001,12.497977899969555,12.497977899969555,,20.18735739996191,12.48847839992959,2024.2.4,None,1,0,1,3,None,,,,,,Leon is onderweg met de bus.,Leon is somber.,Leon wacht rustig af wat er gaat gebeuren.,,,,,,,22.19813139992766,21.198024399927817,22.185909699997865,21.18672310002148,21.186522800009698,20.191873700008728,21.198024399927817,20.198131499928422,2025-04-04 15h48.35.445944 +0200,,,2025-04-04_15h48.27.831,
practice_f,d,,0,Leon zit in de bus.,zit,1,0.550098399980925,,,,,,,,,,,,,,,,,,,671836,,,,,,,,59.58246989538451,metaphors,,,,,,,,,,,,,,,1,0,1,,,001,,,,,,2024.2.4,,1,0,1,3,,,,,,,Leon is onderweg met de bus.,Leon is somber.,Leon wacht rustig af wat er gaat gebeuren.,,,,,,,,,,,,,,,2025-04-04 15h48.35.445944 +0200,,,2025-04-04_15h48.27.831,
practice_f,d,,0,Leon zit in de bus.,in,2,0.5353699000552297,,,,,,,,,,,,,,,,,,,671836,,,,,,,,59.58246989538451,metaphors,,,,,,,,,,,,,,,1,0,1,,,001,,,,,,2024.2.4,,1,0,1,3,,,,,,,Leon is onderweg met de bus.,Leon is somber.,Leon wacht rustig af wat er gaat gebeuren.,,,,,,,,,,,,,,,2025-04-04 15h48.35.445944 +0200,,,2025-04-04_15h48.27.831,
practice_f,d,,0,Leon zit in de bus.,de,3,0.5976747999666259,,,,,,,,,,,,,,,,,,,671836,,,,,,,,59.58246989538451,metaphors,,,,,,,,,,,,,,,1,0,1,,,001,,,,,,2024.2.4,,1,0,1,3,,,,,,,Leon is onderweg met de bus.,Leon is somber.,Leon wacht rustig af wat er gaat gebeuren.,,,,,,,,,,,,,,,2025-04-04 15h48.35.445944 +0200,,,2025-04-04_15h48.27.831,
practice_f,d,,0,Leon zit in de bus.,bus.,4,0.8000135000329465,,,,,,,,,,,,,,,,,,,671836,,,,,,,,59.58246989538451,metaphors,,,,,,,,,,,,,,,1,0,1,,,001,,,,,,2024.2.4,,1,0,1,3,,,,,,,Leon is onderweg met de bus.,Leon is somber.,Leon wacht rustig af wat er gaat gebeuren.,,,,,,,,,,,,,,,2025-04-04 15h48.35.445944 +0200,,,2025-04-04_15h48.27.831,
practice_e,b,31.197698700008914,0,Tom heeft veel in zijn mars.,Tom,0,0.5174076999537647,1,literal,,,,,,,,,,,2.9311215999769047,space,5.0182342999614775,a,,,671836,,,,,,,,59.58246989538451,metaphors,,,,,,,,,,32.197593400022015,32.197593400022015,,25.13733279996086,32.18585879995953,2,0,2,,,001,25.163762499927543,25.163762499927543,,30.187327899970114,25.149369699996896,2024.2.4,None,2,0,2,1,None,,,,,,Tom kan heel ver wandelen.,Tom kan en weet veel dingen.,Tom praat veel.,,,,,,,32.197593400022015,31.197698700008914,32.18572159996256,31.185501100029796,31.18531410000287,30.187838900019415,31.197698700008914,30.198218900011852,2025-04-04 15h48.35.445944 +0200,,,2025-04-04_15h48.27.831,
practice_e,b,,0,Tom heeft veel in zijn mars.,heeft,1,0.7659943000180647,,,,,,,,,,,,,,,,,,,671836,,,,,,,,59.58246989538451,metaphors,,,,,,,,,,,,,,,2,0,2,,,001,,,,,,2024.2.4,,2,0,2,1,,,,,,,Tom kan heel ver wandelen.,Tom kan en weet veel dingen.,Tom praat veel.,,,,,,,,,,,,,,,2025-04-04 15h48.35.445944 +0200,,,2025-04-04_15h48.27.831,
practice_e,b,,0,Tom heeft veel in zijn mars.,veel,2,0.48271050001494586,,,,,,,,,,,,,,,,,,,671836,,,,,,,,59.58246989538451,metaphors,,,,,,,,,,,,,,,2,0,2,,,001,,,,,,2024.2.4,,2,0,2,1,,,,,,,Tom kan heel ver wandelen.,Tom kan en weet veel dingen.,Tom praat veel.,,,,,,,,,,,,,,,2025-04-04 15h48.35.445944 +0200,,,2025-04-04_15h48.27.831,
practice_e,b,,0,Tom heeft veel in zijn mars.,in,3,0.5663806999800727,,,,,,,,,,,,,,,,,,,671836,,,,,,,,59.58246989538451,metaphors,,,,,,,,,,,,,,,2,0,2,,,001,,,,,,2024.2.4,,2,0,2,1,,,,,,,Tom kan heel ver wandelen.,Tom kan en weet veel dingen.,Tom praat veel.,,,,,,,,,,,,,,,2025-04-04 15h48.35.445944 +0200,,,2025-04-04_15h48.27.831,
practice_e,b,,0,Tom heeft veel in zijn mars.,zijn,4,0.3350443000672385,,,,,,,,,,,,,,,,,,,671836,,,,,,,,59.58246989538451,metaphors,,,,,,,,,,,,,,,2,0,2,,,001,,,,,,2024.2.4,,2,0,2,1,,,,,,,Tom kan heel ver wandelen.,Tom kan en weet veel dingen.,Tom praat veel.,,,,,,,,,,,,,,,2025-04-04 15h48.35.445944 +0200,,,2025-04-04_15h48.27.831,
practice_e,b,,0,Tom heeft veel in zijn mars.,mars.,5,0.448427899973467,,,,,,,,,,,,,,,,,,,671836,,,,,,,,59.58246989538451,metaphors,,,,,,,,,,,,,,,2,0,2,,,001,,,,,,2024.2.4,,2,0,2,1,,,,,,,Tom kan heel ver wandelen.,Tom kan en weet veel dingen.,Tom praat veel.,,,,,,,,,,,,,,,2025-04-04 15h48.35.445944 +0200,,,2025-04-04_15h48.27.831,
practice_e,a,39.13122169999406,1,Laura schopt het ver.,Laura,0,0.799845700035803,1,idiomatic,,,,,,,,,,,3.101043700007722,space,2.7877270000753924,b,,,671836,,,,,,,,59.58246989538451,metaphors,,,,,,,,,,40.1310410000151,40.1310410000151,,35.303518699947745,40.11912409996148,3,0,3,,,001,35.33061129995622,35.33061129995622,,38.120959499967285,35.31475729995873,2024.2.4,None,3,0,3,0,None,,,,,,Laura schopt iets ver weg.,Laura is succesvol.,Laura overtreedt een regel.,,,,,,,40.1310410000151,39.13122169999406,40.11898279993329,39.11968479992356,39.11949479999021,38.12145839992445,39.13122169999406,38.13090510002803,2025-04-04 15h48.35.445944 +0200,,,2025-04-04_15h48.27.831,
practice_e,a,,1,Laura schopt het ver.,schopt,1,0.39901169994845986,,,,,,,,,,,,,,,,,,,671836,,,,,,,,59.58246989538451,metaphors,,,,,,,,,,,,,,,3,0,3,,,001,,,,,,2024.2.4,,3,0,3,0,,,,,,,Laura schopt iets ver weg.,Laura is succesvol.,Laura overtreedt een regel.,,,,,,,,,,,,,,,2025-04-04 15h48.35.445944 +0200,,,2025-04-04_15h48.27.831,
practice_e,a,,1,Laura schopt het ver.,het,2,0.5345591999357566,,,,,,,,,,,,,,,,,,,671836,,,,,,,,59.58246989538451,metaphors,,,,,,,,,,,,,,,3,0,3,,,001,,,,,,2024.2.4,,3,0,3,0,,,,,,,Laura schopt iets ver weg.,Laura is succesvol.,Laura overtreedt een regel.,,,,,,,,,,,,,,,2025-04-04 15h48.35.445944 +0200,,,2025-04-04_15h48.27.831,
practice_e,a,,1,Laura schopt het ver.,ver.,3,0.8824918000027537,,,,,,,,,,,,,,,,,,,671836,,,,,,,,59.58246989538451,metaphors,,,,,,,,,,,,,,,3,0,3,,,001,,,,,,2024.2.4,,3,0,3,0,,,,,,,Laura schopt iets ver weg.,Laura is succesvol.,Laura overtreedt een regel.,,,,,,,,,,,,,,,2025-04-04 15h48.35.445944 +0200,,,2025-04-04_15h48.27.831,
,,,,,,,,1,idiomatic,,,,,,,,,,,2.5963874000590295,space,4.053241699934006,c,,,671836,,,,1.4150707999942824,space,,,59.58246989538451,metaphors,,,,,,,,,,,,,42.73686149995774,,,,,49.26988469995558,47.81920429994352,001,42.76397440000437,42.76397440000437,,46.820709499996156,42.74834789999295,2024.2.4,None,,,,,None,,,,,,,,,,,47.84690379991662,None,,,,,,,47.81911839998793,46.82133820001036,47.84690379991662,46.83151509996969,2025-04-04 15h48.35.445944 +0200,,,2025-04-04_15h48.27.831,
experimental,3,49.330488699954,1,Noah zet er een punt achter.,Noah,0,0.9339751999359578,,,,,,,,,,,,,,,,,,,671836,,,,,,,,59.58246989538451,metaphors,,,,0,0,0,2,,,50.297711699968204,50.297711699968204,,,50.28491909999866,0,0,0,,,001,,,,,,2024.2.4,,,,,,,,,,,,Noah zet een punt aan het eind van de zin.,Noah stopt ermee.,Noah let goed op de details.,,,,,,,,49.330488699954,50.28479259996675,49.308743099914864,,,,,2025-04-04 15h48.35.445944 +0200,,,2025-04-04_15h48.27.831,
experimental,3,,1,Noah zet er een punt achter.,zet,1,0.7327322999481112,,,,,,,,,,,,,,,,,,,671836,,,,,,,,59.58246989538451,metaphors,,,,0,0,0,2,,,,,,,,0,0,0,,,001,,,,,,2024.2.4,,,,,,,,,,,,Noah zet een punt aan het eind van de zin.,Noah stopt ermee.,Noah let goed op de details.,,,,,,,,,,,,,,,2025-04-04 15h48.35.445944 +0200,,,2025-04-04_15h48.27.831,
experimental,3,,1,Noah zet er een punt achter.,er,2,0.48421670007519424,,,,,,,,,,,,,,,,,,,671836,,,,,,,,59.58246989538451,metaphors,,,,0,0,0,2,,,,,,,,0,0,0,,,001,,,,,,2024.2.4,,,,,,,,,,,,Noah zet een punt aan het eind van de zin.,Noah stopt ermee.,Noah let goed op de details.,,,,,,,,,,,,,,,2025-04-04 15h48.35.445944 +0200,,,2025-04-04_15h48.27.831,
experimental,3,,1,Noah zet er een punt achter.,een,3,0.61611579998862,,,,,,,,,,,,,,,,,,,671836,,,,,,,,59.58246989538451,metaphors,,,,0,0,0,2,,,,,,,,0,0,0,,,001,,,,,,2024.2.4,,,,,,,,,,,,Noah zet een punt aan het eind van de zin.,Noah stopt ermee.,Noah let goed op de details.,,,,,,,,,,,,,,,2025-04-04 15h48.35.445944 +0200,,,2025-04-04_15h48.27.831,
experimental,3,,1,Noah zet er een punt achter.,punt,4,0.7000124999321997,,,,,,,,,,,,,,,,,,,671836,,,,,,,,59.58246989538451,metaphors,,,,0,0,0,2,,,,,,,,0,0,0,,,001,,,,,,2024.2.4,,,,,,,,,,,,Noah zet een punt aan het eind van de zin.,Noah stopt ermee.,Noah let goed op de details.,,,,,,,,,,,,,,,2025-04-04 15h48.35.445944 +0200,,,2025-04-04_15h48.27.831,
experimental,3,,1,Noah zet er een punt achter.,achter.,5,0.6329470999771729,,,,,,,,,,,,,,,,,,,671836,,,,,,,,59.58246989538451,metaphors,,,,0,0,0,2,,,,,,,,0,0,0,,,001,,,,,,2024.2.4,,,,,,,,,,,,Noah zet een punt aan het eind van de zin.,Noah stopt ermee.,Noah let goed op de details.,,,,,,,,,,,,,,,2025-04-04 15h48.35.445944 +0200,,,2025-04-04_15h48.27.831,
experimental,3,,1,Noah zet er een punt achter.,,,,0,distractor,4.071827100007795,space,4.688254299922846,a,,None,4.071827100007795,space,4.688254299922846,a,,,,,,None,671836,,,,,,,,59.58246989538451,metaphors,,,None,0,0,0,2,None,,,,None,54.38676010002382,,0,0,0,,,001,54.41353299992625,54.41353299992625,None,59.11918139993213,54.398729800013825,2024.2.4,,,,,,,,,,59.12976479995996,59.129705799976364,Noah zet een punt aan het eind van de zin.,Noah stopt ermee.,Noah let goed op de details.,,,,,,,,,,,,,,,2025-04-04 15h48.35.445944 +0200,,,2025-04-04_15h48.27.831,
filler,17,59.14652329997625,1,Eva wordt spelend rijk.,Eva,0,0.6003558000084013,,,,,,,,,,,,,,,,,,,671836,,,,,,,,59.58246989538451,metaphors,,,,1,0,1,16,,,60.14749619993381,60.14749619993381,,,60.13492719992064,1,0,1,,,001,,,,,,2024.2.4,,,,,,,,,,,,Eva verdient geld door spellen te spelen.,"Eva verdient veel geld, zonder dat ze veel hoeft te doen.",Eva verdient geld met een leuke baan.,,,,,,,,59.14652329997625,60.134798699989915,59.1300135999918,,,,,2025-04-04 15h48.35.445944 +0200,,,2025-04-04_15h48.27.831,
filler,17,,1,Eva wordt spelend rijk.,wordt,1,0.7004886000650004,,,,,,,,,,,,,,,,,,,671836,,,,,,,,59.58246989538451,metaphors,,,,1,0,1,16,,,,,,,,1,0,1,,,001,,,,,,2024.2.4,,,,,,,,,,,,Eva verdient geld door spellen te spelen.,"Eva verdient veel geld, zonder dat ze veel hoeft te doen.",Eva verdient geld met een leuke baan.,,,,,,,,,,,,,,,2025-04-04 15h48.35.445944 +0200,,,2025-04-04_15h48.27.831,
filler,17,,1,Eva wordt spelend rijk.,spelend,2,0.4496953999623656,,,,,,,,,,,,,,,,,,,671836,,,,,,,,59.58246989538451,metaphors,,,,1,0,1,16,,,,,,,,1,0,1,,,001,,,,,,2024.2.4,,,,,,,,,,,,Eva verdient geld door spellen te spelen.,"Eva verdient veel geld, zonder dat ze veel hoeft te doen.",Eva verdient geld met een leuke baan.,,,,,,,,,,,,,,,2025-04-04 15h48.35.445944 +0200,,,2025-04-04_15h48.27.831,
filler,17,,1,Eva wordt spelend rijk.,rijk.,3,0.6162190000759438,,,,,,,,,,,,,,,,,,,671836,,,,,,,,59.58246989538451,metaphors,,,,1,0,1,16,,,,,,,,1,0,1,,,001,,,,,,2024.2.4,,,,,,,,,,,,Eva verdient geld door spellen te spelen.,"Eva verdient veel geld, zonder dat ze veel hoeft te doen.",Eva verdient geld met een leuke baan.,,,,,,,,,,,,,,,2025-04-04 15h48.35.445944 +0200,,,2025-04-04_15h48.27.831,
filler,17,,1,Eva wordt spelend rijk.,,,,0,distractor,2.3513676000293344,space,10.201638799975626,c,,None,2.3513676000293344,space,10.201638799975626,c,,,,,,None,671836,,,,,,,,59.58246989538451,metaphors,,,None,1,0,1,16,None,,,,None,62.50353989994619,,1,0,1,,,001,62.53020229993854,62.53020229993854,None,72.73595320002642,62.517942199949175,2024.2.4,,,,,,,,,,72.73610799992457,72.7360711999936,Eva verdient geld door spellen te spelen.,"Eva verdient veel geld, zonder dat ze veel hoeft te doen.",Eva verdient geld met een leuke baan.,,,,,,,,,,,,,,,2025-04-04 15h48.35.445944 +0200,,,2025-04-04_15h48.27.831,
filler,28,72.74685649992898,0,Floris struikelt over zijn veters.,Floris,0,0.36620090005453676,,,,,,,,,,,,,,,,,,,671836,,,,,,,,59.58246989538451,metaphors,,,,2,0,2,27,,,73.74716129992157,73.74716129992157,,,73.73522339994088,2,0,2,,,001,,,,,,2024.2.4,,,,,,,,,,,,Floris valt omdat zijn veter los zitten.,Floris stottert doordat hij te snel spreekt.,Floris is erg onhandig.,,,,,,,73.74716129992157,72.74685649992898,73.73508459993172,72.73632279993035,,,,,2025-04-04 15h48.35.445944 +0200,,,2025-04-04_15h48.27.831,
filler,28,,0,Floris struikelt over zijn veters.,struikelt,1,0.49989869992714375,,,,,,,,,,,,,,,,,,,671836,,,,,,,,59.58246989538451,metaphors,,,,2,0,2,27,,,,,,,,2,0,2,,,001,,,,,,2024.2.4,,,,,,,,,,,,Floris valt omdat zijn veter los zitten.,Floris stottert doordat hij te snel spreekt.,Floris is erg onhandig.,,,,,,,,,,,,,,,2025-04-04 15h48.35.445944 +0200,,,2025-04-04_15h48.27.831,
filler,28,,0,Floris struikelt over zijn veters.,over,2,0.4839259000727907,,,,,,,,,,,,,,,,,,,671836,,,,,,,,59.58246989538451,metaphors,,,,2,0,2,27,,,,,,,,2,0,2,,,001,,,,,,2024.2.4,,,,,,,,,,,,Floris valt omdat zijn veter los zitten.,Floris stottert doordat hij te snel spreekt.,Floris is erg onhandig.,,,,,,,,,,,,,,,2025-04-04 15h48.35.445944 +0200,,,2025-04-04_15h48.27.831,
filler,28,,0,Floris struikelt over zijn veters.,zijn,3,0.45075220009312034,,,,,,,,,,,,,,,,,,,671836,,,,,,,,59.58246989538451,metaphors,,,,2,0,2,27,,,,,,,,2,0,2,,,001,,,,,,2024.2.4,,,,,,,,,,,,Floris valt omdat zijn veter los zitten.,Floris stottert doordat hij te snel spreekt.,Floris is erg onhandig.,,,,,,,,,,,,,,,2025-04-04 15h48.35.445944 +0200,,,2025-04-04_15h48.27.831,
filler,28,,0,Floris struikelt over zijn veters.,veters.,4,0.5491032999707386,,,,,,,,,,,,,,,,,,,671836,,,,,,,,59.58246989538451,metaphors,,,,2,0,2,27,,,,,,,,2,0,2,,,001,,,,,,2024.2.4,,,,,,,,,,,,Floris valt omdat zijn veter los zitten.,Floris stottert doordat hij te snel spreekt.,Floris is erg onhandig.,,,,,,,,,,,,,,,2025-04-04 15h48.35.445944 +0200,,,2025-04-04_15h48.27.831,
filler,28,,0,Floris struikelt over zijn veters.,,,,0,distractor,2.331434499938041,space,1.3994592999806628,a,,None,2.331434499938041,space,1.3994592999806628,a,,,,,,None,671836,,,,,,,,59.58246989538451,metaphors,,,None,2,0,2,27,None,,,,None,76.08663179993164,,2,0,2,,,001,76.11274269991554,76.11274269991554,None,77.51983909995761,76.09904300002381,2024.2.4,,,,,,,,,,77.51999209995847,77.5199557999149,Floris valt omdat zijn veter los zitten.,Floris stottert doordat hij te snel spreekt.,Floris is erg onhandig.,,,,,,,,,,,,,,,2025-04-04 15h48.35.445944 +0200,,,2025-04-04_15h48.27.831,
experimental,10,77.53016530000605,0,Nora loopt naast haar schoenen.,Nora,0,0.5665414000395685,,,,,,,,,,,,,,,,,,,671836,,,,,,,,59.58246989538451,metaphors,,,,3,0,3,9,,,78.53026559995487,78.53026559995487,,,78.51816670002881,3,0,3,,,001,,,,,,2024.2.4,,,,,,,,,,,,Nora loopt op haar blote voeten.,Nora gedraagt zich arrogant.,Nora doet iets wat ze eigenlijk niet kan.,,,,,,,78.53026559995487,77.53016530000605,78.51803049992304,77.52020549995359,,,,,2025-04-04 15h48.35.445944 +0200,,,2025-04-04_15h48.27.831,
experimental,10,,0,Nora loopt naast haar schoenen.,loopt,1,0.583637599949725,,,,,,,,,,,,,,,,,,,671836,,,,,,,,59.58246989538451,metaphors,,,,3,0,3,9,,,,,,,,3,0,3,,,001,,,,,,2024.2.4,,,,,,,,,,,,Nora loopt op haar blote voeten.,Nora gedraagt zich arrogant.,Nora doet iets wat ze eigenlijk niet kan.,,,,,,,,,,,,,,,2025-04-04 15h48.35.445944 +0200,,,2025-04-04_15h48.27.831,
experimental,10,,0,Nora loopt naast haar schoenen.,naast,2,0.5168318999931216,,,,,,,,,,,,,,,,,,,671836,,,,,,,,59.58246989538451,metaphors,,,,3,0,3,9,,,,,,,,3,0,3,,,001,,,,,,2024.2.4,,,,,,,,,,,,Nora loopt op haar blote voeten.,Nora gedraagt zich arrogant.,Nora doet iets wat ze eigenlijk niet kan.,,,,,,,,,,,,,,,2025-04-04 15h48.35.445944 +0200,,,2025-04-04_15h48.27.831,
experimental,10,,0,Nora loopt naast haar schoenen.,haar,3,0.4493459000950679,,,,,,,,,,,,,,,,,,,671836,,,,,,,,59.58246989538451,metaphors,,,,3,0,3,9,,,,,,,,3,0,3,,,001,,,,,,2024.2.4,,,,,,,,,,,,Nora loopt op haar blote voeten.,Nora gedraagt zich arrogant.,Nora doet iets wat ze eigenlijk niet kan.,,,,,,,,,,,,,,,2025-04-04 15h48.35.445944 +0200,,,2025-04-04_15h48.27.831,
experimental,10,,0,Nora loopt naast haar schoenen.,schoenen.,4,0.5164937999797985,,,,,,,,,,,,,,,,,,,671836,,,,,,,,59.58246989538451,metaphors,,,,3,0,3,9,,,,,,,,3,0,3,,,001,,,,,,2024.2.4,,,,,,,,,,,,Nora loopt op haar blote voeten.,Nora gedraagt zich arrogant.,Nora doet iets wat ze eigenlijk niet kan.,,,,,,,,,,,,,,,2025-04-04 15h48.35.445944 +0200,,,2025-04-04_15h48.27.831,
experimental,10,,0,Nora loopt naast haar schoenen.,,,,1,idiomatic,2.6115343999117613,space,1.8271812999155372,c,,None,2.6115343999117613,space,1.8271812999155372,c,,,,,,None,671836,,,,,,,,59.58246989538451,metaphors,,,None,3,0,3,9,None,,,,None,81.15249839995522,,3,0,3,,,001,81.18021959997714,81.18021959997714,None,83.0196332000196,81.16466499993112,2024.2.4,,,,,,,,,,83.01978819991928,83.01975149998907,Nora loopt op haar blote voeten.,Nora gedraagt zich arrogant.,Nora doet iets wat ze eigenlijk niet kan.,,,,,,,,,,,,,,,2025-04-04 15h48.35.445944 +0200,,,2025-04-04_15h48.27.831,
filler,19,83.03025159996469,1,Klaas verraadt hem voor geen cent.,Klaas,0,0.750199000001885,,,,,,,,,,,,,,,,,,,671836,,,,,,,,59.58246989538451,metaphors,,,,4,0,4,18,,,84.03039839991834,84.03039839991834,,,84.01841339992825,4,0,4,,,001,,,,,,2024.2.4,,,,,,,,,,,,"Klaas zal hem niet verraden, ook niet voor geld.",Klaas vertrouwt hem helemaal niet.,Klaas is erg betrouwbaar.,,,,,,,84.03039839991834,83.03025159996469,84.01827539992519,83.02000269992277,,,,,2025-04-04 15h48.35.445944 +0200,,,2025-04-04_15h48.27.831,
filler,19,,1,Klaas verraadt hem voor geen cent.,verraadt,1,0.6991338999941945,,,,,,,,,,,,,,,,,,,671836,,,,,,,,59.58246989538451,metaphors,,,,4,0,4,18,,,,,,,,4,0,4,,,001,,,,,,2024.2.4,,,,,,,,,,,,"Klaas zal hem niet verraden, ook niet voor geld.",Klaas vertrouwt hem helemaal niet.,Klaas is erg betrouwbaar.,,,,,,,,,,,,,,,2025-04-04 15h48.35.445944 +0200,,,2025-04-04_15h48.27.831,
filler,19,,1,Klaas verraadt hem voor geen cent.,hem,2,0.5831533999880776,,,,,,,,,,,,,,,,,,,671836,,,,,,,,59.58246989538451,metaphors,,,,4,0,4,18,,,,,,,,4,0,4,,,001,,,,,,2024.2.4,,,,,,,,,,,,"Klaas zal hem niet verraden, ook niet voor geld.",Klaas vertrouwt hem helemaal niet.,Klaas is erg betrouwbaar.,,,,,,,,,,,,,,,2025-04-04 15h48.35.445944 +0200,,,2025-04-04_15h48.27.831,
filler,19,,1,Klaas verraadt hem voor geen cent.,voor,3,0.4499022000236437,,,,,,,,,,,,,,,,,,,671836,,,,,,,,59.58246989538451,metaphors,,,,4,0,4,18,,,,,,,,4,0,4,,,001,,,,,,2024.2.4,,,,,,,,,,,,"Klaas zal hem niet verraden, ook niet voor geld.",Klaas vertrouwt hem helemaal niet.,Klaas is erg betrouwbaar.,,,,,,,,,,,,,,,2025-04-04 15h48.35.445944 +0200,,,2025-04-04_15h48.27.831,
filler,19,,1,Klaas verraadt hem voor geen cent.,geen,4,0.6177846000064164,,,,,,,,,,,,,,,,,,,671836,,,,,,,,59.58246989538451,metaphors,,,,4,0,4,18,,,,,,,,4,0,4,,,001,,,,,,2024.2.4,,,,,,,,,,,,"Klaas zal hem niet verraden, ook niet voor geld.",Klaas vertrouwt hem helemaal niet.,Klaas is erg betrouwbaar.,,,,,,,,,,,,,,,2025-04-04 15h48.35.445944 +0200,,,2025-04-04_15h48.27.831,
filler,19,,1,Klaas verraadt hem voor geen cent.,cent.,5,0.5327697999309748,,,,,,,,,,,,,,,,,,,671836,,,,,,,,59.58246989538451,metaphors,,,,4,0,4,18,,,,,,,,4,0,4,,,001,,,,,,2024.2.4,,,,,,,,,,,,"Klaas zal hem niet verraden, ook niet voor geld.",Klaas vertrouwt hem helemaal niet.,Klaas is erg betrouwbaar.,,,,,,,,,,,,,,,2025-04-04 15h48.35.445944 +0200,,,2025-04-04_15h48.27.831,
filler,19,,1,Klaas verraadt hem voor geen cent.,,,,1,literal,3.618296099943109,space,1.600938000017777,b,,None,3.618296099943109,space,1.600938000017777,b,,,,,,None,671836,,,,,,,,59.58246989538451,metaphors,,,None,4,0,4,18,None,,,,None,87.6531334000174,,4,0,4,,,001,87.679859799915,87.679859799915,None,89.28666470001917,87.66626189998351,2024.2.4,,,,,,,,,,89.28681700001471,89.2867799999658,"Klaas zal hem niet verraden, ook niet voor geld.",Klaas vertrouwt hem helemaal niet.,Klaas is erg betrouwbaar.,,,,,,,,,,,,,,,2025-04-04 15h48.35.445944 +0200,,,2025-04-04_15h48.27.831,
filler,18,89.29667870001867,1,Max smijt met munten.,Max,0,0.6650975000811741,,,,,,,,,,,,,,,,,,,671836,,,,,,,,59.58246989538451,metaphors,,,,5,0,5,17,,,90.29727490001824,90.29727490001824,,,90.28620929992758,5,0,5,,,001,,,,,,2024.2.4,,,,,,,,,,,,Max gooit met munten.,Max geeft te veel geld uit.,Max speelt vals: hij betaalt om te winnen.,,,,,,,90.29727490001824,89.29667870001867,90.28606579999905,89.2870315000182,,,,,2025-04-04 15h48.35.445944 +0200,,,2025-04-04_15h48.27.831,
filler,18,,1,Max smijt met munten.,smijt,1,0.5000287999864668,,,,,,,,,,,,,,,,,,,671836,,,,,,,,59.58246989538451,metaphors,,,,5,0,5,17,,,,,,,,5,0,5,,,001,,,,,,2024.2.4,,,,,,,,,,,,Max gooit met munten.,Max geeft te veel geld uit.,Max speelt vals: hij betaalt om te winnen.,,,,,,,,,,,,,,,2025-04-04 15h48.35.445944 +0200,,,2025-04-04_15h48.27.831,
filler,18,,1,Max smijt met munten.,met,2,0.48272449988871813,,,,,,,,,,,,,,,,,,,671836,,,,,,,,59.58246989538451,metaphors,,,,5,0,5,17,,,,,,,,5,0,5,,,001,,,,,,2024.2.4,,,,,,,,,,,,Max gooit met munten.,Max geeft te veel geld uit.,Max speelt vals: hij betaalt om te winnen.,,,,,,,,,,,,,,,2025-04-04 15h48.35.445944 +0200,,,2025-04-04_15h48.27.831,
filler,18,,1,Max smijt met munten.,munten.,3,0.4166394000640139,,,,,,,,,,,,,,,,,,,671836,,,,,,,,59.58246989538451,metaphors,,,,5,0,5,17,,,,,,,,5,0,5,,,001,,,,,,2024.2.4,,,,,,,,,,,,Max gooit met munten.,Max geeft te veel geld uit.,Max speelt vals: hij betaalt om te winnen.,,,,,,,,,,,,,,,2025-04-04 15h48.35.445944 +0200,,,2025-04-04_15h48.27.831,
filler,18,,1,Max smijt met munten.,,,,1,literal,2.044733799993992,space,1.82820550003089,b,,None,2.044733799993992,space,1.82820550003089,b,,,,,,None,671836,,,,,,,,59.58246989538451,metaphors,,,None,5,0,5,17,None,,,,None,92.3524281999562,,5,0,5,,,001,92.37915579997934,92.37915579997934,None,94.21917479997501,92.3665372999385,2024.2.4,,,,,,,,,,94.21932729997206,94.21929049992468,Max gooit met munten.,Max geeft te veel geld uit.,Max speelt vals: hij betaalt om te winnen.,,,,,,,,,,,,,,,2025-04-04 15h48.35.445944 +0200,,,2025-04-04_15h48.27.831,
experimental,9,94.22989640000742,0,Sam helpt hem om zeep.,Sam,0,0.7335330999922007,,,,,,,,,,,,,,,,,,,671836,,,,,,,,59.58246989538451,metaphors,,,,6,0,6,8,,,95.23000370000955,95.23000370000955,,,95.21805179992225,6,0,6,,,001,,,,,,2024.2.4,,,,,,,,,,,,Sam geeft hem zeep.,Sam vermoordt hem.,Sam helpt hem met schoonmaken.,,,,,,,95.23000370000955,94.22989640000742,95.21790819999296,94.21954229997937,,,,,2025-04-04 15h48.35.445944 +0200,,,2025-04-04_15h48.27.831,
experimental,9,,0,Sam helpt hem om zeep.,helpt,1,0.43304040003567934,,,,,,,,,,,,,,,,,,,671836,,,,,,,,59.58246989538451,metaphors,,,,6,0,6,8,,,,,,,,6,0,6,,,001,,,,,,2024.2.4,,,,,,,,,,,,Sam geeft hem zeep.,Sam vermoordt hem.,Sam helpt hem met schoonmaken.,,,,,,,,,,,,,,,2025-04-04 15h48.35.445944 +0200,,,2025-04-04_15h48.27.831,
experimental,9,,0,Sam helpt hem om zeep.,hem,2,0.4831878000404686,,,,,,,,,,,,,,,,,,,671836,,,,,,,,59.58246989538451,metaphors,,,,6,0,6,8,,,,,,,,6,0,6,,,001,,,,,,2024.2.4,,,,,,,,,,,,Sam geeft hem zeep.,Sam vermoordt hem.,Sam helpt hem met schoonmaken.,,,,,,,,,,,,,,,2025-04-04 15h48.35.445944 +0200,,,2025-04-04_15h48.27.831,
experimental,9,,0,Sam helpt hem om zeep.,om,3,0.4659533000085503,,,,,,,,,,,,,,,,,,,671836,,,,,,,,59.58246989538451,metaphors,,,,6,0,6,8,,,,,,,,6,0,6,,,001,,,,,,2024.2.4,,,,,,,,,,,,Sam geeft hem zeep.,Sam vermoordt hem.,Sam helpt hem met schoonmaken.,,,,,,,,,,,,,,,2025-04-04 15h48.35.445944 +0200,,,2025-04-04_15h48.27.831,
experimental,9,,0,Sam helpt hem om zeep.,zeep.,4,0.6674914000323042,,,,,,,,,,,,,,,,,,,671836,,,,,,,,59.58246989538451,metaphors,,,,6,0,6,8,,,,,,,,6,0,6,,,001,,,,,,2024.2.4,,,,,,,,,,,,Sam geeft hem zeep.,Sam vermoordt hem.,Sam helpt hem met schoonmaken.,,,,,,,,,,,,,,,2025-04-04 15h48.35.445944 +0200,,,2025-04-04_15h48.27.831,
experimental,9,,0,Sam helpt hem om zeep.,,,,1,idiomatic,2.7587649000342935,space,4.060086000012234,b,,None,2.7587649000342935,space,4.060086000012234,b,,,,,,None,671836,,,,,,,,59.58246989538451,metaphors,,,None,6,0,6,8,None,,,,None,98.00299730000552,,6,0,6,,,001,98.02919779997319,98.02919779997319,None,102.102505799965,98.01414280000608,2024.2.4,,,,,,,,,,102.10265789995901,102.1026212000288,Sam geeft hem zeep.,Sam vermoordt hem.,Sam helpt hem met schoonmaken.,,,,,,,,,,,,,,,2025-04-04 15h48.35.445944 +0200,,,2025-04-04_15h48.27.831,
experimental,16,102.11301919992547,0,Maud loopt op haar tenen.,Maud,0,0.4671203000470996,,,,,,,,,,,,,,,,,,,671836,,,,,,,,59.58246989538451,metaphors,,,,7,0,7,15,,,103.11323719995562,103.11323719995562,,,103.1017365999287,7,0,7,,,001,,,,,,2024.2.4,,,,,,,,,,,,Maud loopt op haar tenen.,Maud kan het maar net aan.,Maud doet alsof ze ergens goed in is.,,,,,,,103.11323719995562,102.11301919992547,103.10159320000093,102.10287389997393,,,,,2025-04-04 15h48.35.445944 +0200,,,2025-04-04_15h48.27.831,
experimental,16,,0,Maud loopt op haar tenen.,loopt,1,0.41595229995436966,,,,,,,,,,,,,,,,,,,671836,,,,,,,,59.58246989538451,metaphors,,,,7,0,7,15,,,,,,,,7,0,7,,,001,,,,,,2024.2.4,,,,,,,,,,,,Maud loopt op haar tenen.,Maud kan het maar net aan.,Maud doet alsof ze ergens goed in is.,,,,,,,,,,,,,,,2025-04-04 15h48.35.445944 +0200,,,2025-04-04_15h48.27.831,
experimental,16,,0,Maud loopt op haar tenen.,op,2,0.44985299999825656,,,,,,,,,,,,,,,,,,,671836,,,,,,,,59.58246989538451,metaphors,,,,7,0,7,15,,,,,,,,7,0,7,,,001,,,,,,2024.2.4,,,,,,,,,,,,Maud loopt op haar tenen.,Maud kan het maar net aan.,Maud doet alsof ze ergens goed in is.,,,,,,,,,,,,,,,2025-04-04 15h48.35.445944 +0200,,,2025-04-04_15h48.27.831,
experimental,16,,0,Maud loopt op haar tenen.,haar,3,0.5161925000138581,,,,,,,,,,,,,,,,,,,671836,,,,,,,,59.58246989538451,metaphors,,,,7,0,7,15,,,,,,,,7,0,7,,,001,,,,,,2024.2.4,,,,,,,,,,,,Maud loopt op haar tenen.,Maud kan het maar net aan.,Maud doet alsof ze ergens goed in is.,,,,,,,,,,,,,,,2025-04-04 15h48.35.445944 +0200,,,2025-04-04_15h48.27.831,
experimental,16,,0,Maud loopt op haar tenen.,tenen.,4,0.48283079999964684,,,,,,,,,,,,,,,,,,,671836,,,,,,,,59.58246989538451,metaphors,,,,7,0,7,15,,,,,,,,7,0,7,,,001,,,,,,2024.2.4,,,,,,,,,,,,Maud loopt op haar tenen.,Maud kan het maar net aan.,Maud doet alsof ze ergens goed in is.,,,,,,,,,,,,,,,2025-04-04 15h48.35.445944 +0200,,,2025-04-04_15h48.27.831,
experimental,16,,0,Maud loopt op haar tenen.,,,,1,idiomatic,2.3102638999698684,space,3.413878899998963,c,2.2990448999917135,space,2.3102638999698684,space,3.413878899998963,c,,,,,2.2990448999917135,space,671836,,,,,,,,59.58246989538451,metaphors,,,None,7,0,7,15,None,None,,,None,105.43548119999468,,7,0,7,,,001,105.46273030003067,105.46273030003067,None,108.88520649995189,105.44740730000194,2024.2.4,,,,,,,108.91244320000987,108.91244320000987,None,111.21930859994609,108.89460669993423,Maud loopt op haar tenen.,Maud kan het maar net aan.,Maud doet alsof ze ergens goed in is.,,,,,,,,,,,,,,,2025-04-04 15h48.35.445944 +0200,,,2025-04-04_15h48.27.831,
experimental,1,111.22971159999724,1,Mark laat zijn gezicht zien.,Mark,0,0.632875100011006,,,,,,,,,,,,,,,,,,,671836,,,,,,,,59.58246989538451,metaphors,,,,8,0,8,0,,,112.23057809995953,112.23057809995953,,,112.21829350001644,8,0,8,,,001,,,,,,2024.2.4,,,,,,,,,,,,Mark laat zijn gezicht aan iemand zien.,Mark is even aanwezig.,Mark toont zijn echte emoties.,,,,,,,112.23057809995953,111.22971159999724,112.21815480000805,111.2195967999287,,,,,2025-04-04 15h48.35.445944 +0200,,,2025-04-04_15h48.27.831,
experimental,1,,1,Mark laat zijn gezicht zien.,laat,1,0.583013900090009,,,,,,,,,,,,,,,,,,,671836,,,,,,,,59.58246989538451,metaphors,,,,8,0,8,0,,,,,,,,8,0,8,,,001,,,,,,2024.2.4,,,,,,,,,,,,Mark laat zijn gezicht aan iemand zien.,Mark is even aanwezig.,Mark toont zijn echte emoties.,,,,,,,,,,,,,,,2025-04-04 15h48.35.445944 +0200,,,2025-04-04_15h48.27.831,
experimental,1,,1,Mark laat zijn gezicht zien.,zijn,2,0.5506066998932511,,,,,,,,,,,,,,,,,,,671836,,,,,,,,59.58246989538451,metaphors,,,,8,0,8,0,,,,,,,,8,0,8,,,001,,,,,,2024.2.4,,,,,,,,,,,,Mark laat zijn gezicht aan iemand zien.,Mark is even aanwezig.,Mark toont zijn echte emoties.,,,,,,,,,,,,,,,2025-04-04 15h48.35.445944 +0200,,,2025-04-04_15h48.27.831,
experimental,1,,1,Mark laat zijn gezicht zien.,gezicht,3,0.29962420009542257,,,,,,,,,,,,,,,,,,,671836,,,,,,,,59.58246989538451,metaphors,,,,8,0,8,0,,,,,,,,8,0,8,,,001,,,,,,2024.2.4,,,,,,,,,,,,Mark laat zijn gezicht aan iemand zien.,Mark is even aanwezig.,Mark toont zijn echte emoties.,,,,,,,,,,,,,,,2025-04-04 15h48.35.445944 +0200,,,2025-04-04_15h48.27.831,
experimental,1,,1,Mark laat zijn gezicht zien.,zien.,4,0.41663100000005215,,,,,,,,,,,,,,,,,,,671836,,,,,,,,59.58246989538451,metaphors,,,,8,0,8,0,,,,,,,,8,0,8,,,001,,,,,,2024.2.4,,,,,,,,,,,,Mark laat zijn gezicht aan iemand zien.,Mark is even aanwezig.,Mark toont zijn echte emoties.,,,,,,,,,,,,,,,2025-04-04 15h48.35.445944 +0200,,,2025-04-04_15h48.27.831,
experimental,1,,1,Mark laat zijn gezicht zien.,,,,1,idiomatic,2.4627322000451386,space,4.079830599948764,a,,None,2.4627322000451386,space,4.079830599948764,a,,,,,,None,671836,,,,,,,,59.58246989538451,metaphors,,,None,8,0,8,0,None,,,,None,114.70263880002312,,8,0,8,,,001,114.72912429994904,114.72912429994904,None,118.81916159996763,114.7145805999171,2024.2.4,,,,,,,,,,118.81931669998448,118.8192785999272,Mark laat zijn gezicht aan iemand zien.,Mark is even aanwezig.,Mark toont zijn echte emoties.,,,,,,,,,,,,,,,2025-04-04 15h48.35.445944 +0200,,,2025-04-04_15h48.27.831,
experimental,12,118.82987219991628,0,Julia doet mee voor spek en bonen.,Julia,0,0.3826866999734193,,,,,,,,,,,,,,,,,,,671836,,,,,,,,59.58246989538451,metaphors,,,,9,0,9,11,,,119.8296093000099,119.8296093000099,,,119.81770599994343,9,0,9,,,001,,,,,,2024.2.4,,,,,,,,,,,,Julia doet mee om spek en bonen te krijgen.,"Julia speelt mee, maar het telt niet.",Julia doet mee om te winnen.,,,,,,,119.8296093000099,118.82987219991628,119.81756849994417,118.8195476999972,,,,,2025-04-04 15h48.35.445944 +0200,,,2025-04-04_15h48.27.831,
experimental,12,,0,Julia doet mee voor spek en bonen.,doet,1,0.4004576998995617,,,,,,,,,,,,,,,,,,,671836,,,,,,,,59.58246989538451,metaphors,,,,9,0,9,11,,,,,,,,9,0,9,,,001,,,,,,2024.2.4,,,,,,,,,,,,Julia doet mee om spek en bonen te krijgen.,"Julia speelt mee, maar het telt niet.",Julia doet mee om te winnen.,,,,,,,,,,,,,,,2025-04-04 15h48.35.445944 +0200,,,2025-04-04_15h48.27.831,
experimental,12,,0,Julia doet mee voor spek en bonen.,mee,2,0.6036273000063375,,,,,,,,,,,,,,,,,,,671836,,,,,,,,59.58246989538451,metaphors,,,,9,0,9,11,,,,,,,,9,0,9,,,001,,,,,,2024.2.4,,,,,,,,,,,,Julia doet mee om spek en bonen te krijgen.,"Julia speelt mee, maar het telt niet.",Julia doet mee om te winnen.,,,,,,,,,,,,,,,2025-04-04 15h48.35.445944 +0200,,,2025-04-04_15h48.27.831,
experimental,12,,0,Julia doet mee voor spek en bonen.,voor,3,0.7125490000471473,,,,,,,,,,,,,,,,,,,671836,,,,,,,,59.58246989538451,metaphors,,,,9,0,9,11,,,,,,,,9,0,9,,,001,,,,,,2024.2.4,,,,,,,,,,,,Julia doet mee om spek en bonen te krijgen.,"Julia speelt mee, maar het telt niet.",Julia doet mee om te winnen.,,,,,,,,,,,,,,,2025-04-04 15h48.35.445944 +0200,,,2025-04-04_15h48.27.831,
experimental,12,,0,Julia doet mee voor spek en bonen.,spek,4,0.33344399998895824,,,,,,,,,,,,,,,,,,,671836,,,,,,,,59.58246989538451,metaphors,,,,9,0,9,11,,,,,,,,9,0,9,,,001,,,,,,2024.2.4,,,,,,,,,,,,Julia doet mee om spek en bonen te krijgen.,"Julia speelt mee, maar het telt niet.",Julia doet mee om te winnen.,,,,,,,,,,,,,,,2025-04-04 15h48.35.445944 +0200,,,2025-04-04_15h48.27.831,
experimental,12,,0,Julia doet mee voor spek en bonen.,en,5,0.5326577000087127,,,,,,,,,,,,,,,,,,,671836,,,,,,,,59.58246989538451,metaphors,,,,9,0,9,11,,,,,,,,9,0,9,,,001,,,,,,2024.2.4,,,,,,,,,,,,Julia doet mee om spek en bonen te krijgen.,"Julia speelt mee, maar het telt niet.",Julia doet mee om te winnen.,,,,,,,,,,,,,,,2025-04-04 15h48.35.445944 +0200,,,2025-04-04_15h48.27.831,
experimental,12,,0,Julia doet mee voor spek en bonen.,bonen.,6,0.7670528999296948,,,,,,,,,,,,,,,,,,,671836,,,,,,,,59.58246989538451,metaphors,,,,9,0,9,11,,,,,,,,9,0,9,,,001,,,,,,2024.2.4,,,,,,,,,,,,Julia doet mee om spek en bonen te krijgen.,"Julia speelt mee, maar het telt niet.",Julia doet mee om te winnen.,,,,,,,,,,,,,,,2025-04-04 15h48.35.445944 +0200,,,2025-04-04_15h48.27.831,
experimental,12,,0,Julia doet mee voor spek en bonen.,,,,1,idiomatic,3.707963400054723,space,5.8443106999620795,a,,None,3.707963400054723,space,5.8443106999620795,a,,,,,,None,671836,,,,,,,,59.58246989538451,metaphors,,,None,9,0,9,11,None,,,,None,123.55213289998937,,9,0,9,,,001,123.57881089998409,123.57881089998409,None,129.43520880001597,123.56478819996119,2024.2.4,,,,,,,,,,129.43535949999932,129.43532309995499,Julia doet mee om spek en bonen te krijgen.,"Julia speelt mee, maar het telt niet.",Julia doet mee om te winnen.,,,,,,,,,,,,,,,2025-04-04 15h48.35.445944 +0200,,,2025-04-04_15h48.27.831,
filler,27,129.4460470000049,0,Lieke gaat voor Bo door het water.,Lieke,0,0.3835656000301242,,,,,,,,,,,,,,,,,,,671836,,,,,,,,59.58246989538451,metaphors,,,,10,0,10,26,,,130.44616379996296,130.44616379996296,,,130.43405469995923,10,0,10,,,001,,,,,,2024.2.4,,,,,,,,,,,,Lieke zwemt door het water naar Bo toe.,Lieke heeft alles over voor Bo.,Lieke fiets door de regen naar Bo toe.,,,,,,,130.44616379996296,129.4460470000049,130.43391839996912,129.4355874999892,,,,,2025-04-04 15h48.35.445944 +0200,,,2025-04-04_15h48.27.831,
filler,27,,0,Lieke gaat voor Bo door het water.,gaat,1,0.4991498999297619,,,,,,,,,,,,,,,,,,,671836,,,,,,,,59.58246989538451,metaphors,,,,10,0,10,26,,,,,,,,10,0,10,,,001,,,,,,2024.2.4,,,,,,,,,,,,Lieke zwemt door het water naar Bo toe.,Lieke heeft alles over voor Bo.,Lieke fiets door de regen naar Bo toe.,,,,,,,,,,,,,,,2025-04-04 15h48.35.445944 +0200,,,2025-04-04_15h48.27.831,
filler,27,,0,Lieke gaat voor Bo door het water.,voor,2,0.6173997999867424,,,,,,,,,,,,,,,,,,,671836,,,,,,,,59.58246989538451,metaphors,,,,10,0,10,26,,,,,,,,10,0,10,,,001,,,,,,2024.2.4,,,,,,,,,,,,Lieke zwemt door het water naar Bo toe.,Lieke heeft alles over voor Bo.,Lieke fiets door de regen naar Bo toe.,,,,,,,,,,,,,,,2025-04-04 15h48.35.445944 +0200,,,2025-04-04_15h48.27.831,
filler,27,,0,Lieke gaat voor Bo door het water.,Bo,3,0.4492131000151858,,,,,,,,,,,,,,,,,,,671836,,,,,,,,59.58246989538451,metaphors,,,,10,0,10,26,,,,,,,,10,0,10,,,001,,,,,,2024.2.4,,,,,,,,,,,,Lieke zwemt door het water naar Bo toe.,Lieke heeft alles over voor Bo.,Lieke fiets door de regen naar Bo toe.,,,,,,,,,,,,,,,2025-04-04 15h48.35.445944 +0200,,,2025-04-04_15h48.27.831,
filler,27,,0,Lieke gaat voor Bo door het water.,door,4,0.5831938000628725,,,,,,,,,,,,,,,,,,,671836,,,,,,,,59.58246989538451,metaphors,,,,10,0,10,26,,,,,,,,10,0,10,,,001,,,,,,2024.2.4,,,,,,,,,,,,Lieke zwemt door het water naar Bo toe.,Lieke heeft alles over voor Bo.,Lieke fiets door de regen naar Bo toe.,,,,,,,,,,,,,,,2025-04-04 15h48.35.445944 +0200,,,2025-04-04_15h48.27.831,
filler,27,,0,Lieke gaat voor Bo door het water.,het,5,0.4001604999648407,,,,,,,,,,,,,,,,,,,671836,,,,,,,,59.58246989538451,metaphors,,,,10,0,10,26,,,,,,,,10,0,10,,,001,,,,,,2024.2.4,,,,,,,,,,,,Lieke zwemt door het water naar Bo toe.,Lieke heeft alles over voor Bo.,Lieke fiets door de regen naar Bo toe.,,,,,,,,,,,,,,,2025-04-04 15h48.35.445944 +0200,,,2025-04-04_15h48.27.831,
filler,27,,0,Lieke gaat voor Bo door het water.,water.,6,0.8000569000141695,,,,,,,,,,,,,,,,,,,671836,,,,,,,,59.58246989538451,metaphors,,,,10,0,10,26,,,,,,,,10,0,10,,,001,,,,,,2024.2.4,,,,,,,,,,,,Lieke zwemt door het water naar Bo toe.,Lieke heeft alles over voor Bo.,Lieke fiets door de regen naar Bo toe.,,,,,,,,,,,,,,,2025-04-04 15h48.35.445944 +0200,,,2025-04-04_15h48.27.831,
filler,27,,0,Lieke gaat voor Bo door het water.,,,,1,literal,3.718426400097087,space,1.9437594000482932,b,,None,3.718426400097087,space,1.9437594000482932,b,,,,,,None,671836,,,,,,,,59.58246989538451,metaphors,,,None,10,0,10,26,None,,,,None,134.16860839992296,,10,0,10,,,001,134.1958662000252,134.1958662000252,None,136.15126049995888,134.18145729997195,2024.2.4,,,,,,,,,,136.15141269995365,136.15137620002497,Lieke zwemt door het water naar Bo toe.,Lieke heeft alles over voor Bo.,Lieke fiets door de regen naar Bo toe.,,,,,,,,,,,,,,,2025-04-04 15h48.35.445944 +0200,,,2025-04-04_15h48.27.831,
filler,24,136.16263109992724,1,Jurre staat op het geld.,Jurre,0,0.6331298000877723,,,,,,,,,,,,,,,,,,,671836,,,,,,,,59.58246989538451,metaphors,,,,11,0,11,23,,,137.16226739995182,137.16226739995182,,,137.15022910002153,11,0,11,,,001,,,,,,2024.2.4,,,,,,,,,,,,Jurre staat met zijn voet op het geld.,Jurre is erg rijk.,Jurre let op het geld.,,,,,,,137.16226739995182,136.16263109992724,137.1500935999211,136.15162649995182,,,,,2025-04-04 15h48.35.445944 +0200,,,2025-04-04_15h48.27.831,
filler,24,,1,Jurre staat op het geld.,staat,1,0.5330052999779582,,,,,,,,,,,,,,,,,,,671836,,,,,,,,59.58246989538451,metaphors,,,,11,0,11,23,,,,,,,,11,0,11,,,001,,,,,,2024.2.4,,,,,,,,,,,,Jurre staat met zijn voet op het geld.,Jurre is erg rijk.,Jurre let op het geld.,,,,,,,,,,,,,,,2025-04-04 15h48.35.445944 +0200,,,2025-04-04_15h48.27.831,
filler,24,,1,Jurre staat op het geld.,op,2,0.5005536000244319,,,,,,,,,,,,,,,,,,,671836,,,,,,,,59.58246989538451,metaphors,,,,11,0,11,23,,,,,,,,11,0,11,,,001,,,,,,2024.2.4,,,,,,,,,,,,Jurre staat met zijn voet op het geld.,Jurre is erg rijk.,Jurre let op het geld.,,,,,,,,,,,,,,,2025-04-04 15h48.35.445944 +0200,,,2025-04-04_15h48.27.831,
filler,24,,1,Jurre staat op het geld.,het,3,0.6833185999421403,,,,,,,,,,,,,,,,,,,671836,,,,,,,,59.58246989538451,metaphors,,,,11,0,11,23,,,,,,,,11,0,11,,,001,,,,,,2024.2.4,,,,,,,,,,,,Jurre staat met zijn voet op het geld.,Jurre is erg rijk.,Jurre let op het geld.,,,,,,,,,,,,,,,2025-04-04 15h48.35.445944 +0200,,,2025-04-04_15h48.27.831,
filler,24,,1,Jurre staat op het geld.,geld.,4,0.9156891000457108,,,,,,,,,,,,,,,,,,,671836,,,,,,,,59.58246989538451,metaphors,,,,11,0,11,23,,,,,,,,11,0,11,,,001,,,,,,2024.2.4,,,,,,,,,,,,Jurre staat met zijn voet op het geld.,Jurre is erg rijk.,Jurre let op het geld.,,,,,,,,,,,,,,,2025-04-04 15h48.35.445944 +0200,,,2025-04-04_15h48.27.831,
filler,24,,1,Jurre staat op het geld.,,,,1,literal,3.2391595999943092,space,3.793959000031464,c,,None,3.2391595999943092,space,3.793959000031464,c,,,,,,None,671836,,,,,,,,59.58246989538451,metaphors,,,None,11,0,11,23,None,,,,None,140.41768059995957,,11,0,11,,,001,140.44528019998688,140.44528019998688,None,144.25160840002354,140.42877939995378,2024.2.4,,,,,,,,,,144.25175799999852,144.25172199995723,Jurre staat met zijn voet op het geld.,Jurre is erg rijk.,Jurre let op het geld.,,,,,,,,,,,,,,,2025-04-04 15h48.35.445944 +0200,,,2025-04-04_15h48.27.831,
experimental,15,144.26217659993563,0,Jeroen moet stoom afblazen.,Jeroen,0,0.5004863999783993,,,,,,,,,,,,,,,,,,,671836,,,,,,,,59.58246989538451,metaphors,,,,12,0,12,14,,,145.2625908999471,145.2625908999471,,,145.250747699989,12,0,12,,,001,,,,,,2024.2.4,,,,,,,,,,,,Jeroen blaast stoom weg van zijn hete thee.,Jeroen is gefrustreerd en moet hierover praten.,Jeroen heeft gesport en moet een cooling-down doen.,,,,,,,145.2625908999471,144.26217659993563,145.2506113999989,144.2519864999922,,,,,2025-04-04 15h48.35.445944 +0200,,,2025-04-04_15h48.27.831,
experimental,15,,0,Jeroen moet stoom afblazen.,moet,1,0.4820540000218898,,,,,,,,,,,,,,,,,,,671836,,,,,,,,59.58246989538451,metaphors,,,,12,0,12,14,,,,,,,,12,0,12,,,001,,,,,,2024.2.4,,,,,,,,,,,,Jeroen blaast stoom weg van zijn hete thee.,Jeroen is gefrustreerd en moet hierover praten.,Jeroen heeft gesport en moet een cooling-down doen.,,,,,,,,,,,,,,,2025-04-04 15h48.35.445944 +0200,,,2025-04-04_15h48.27.831,
experimental,15,,0,Jeroen moet stoom afblazen.,stoom,2,0.5666589000029489,,,,,,,,,,,,,,,,,,,671836,,,,,,,,59.58246989538451,metaphors,,,,12,0,12,14,,,,,,,,12,0,12,,,001,,,,,,2024.2.4,,,,,,,,,,,,Jeroen blaast stoom weg van zijn hete thee.,Jeroen is gefrustreerd en moet hierover praten.,Jeroen heeft gesport en moet een cooling-down doen.,,,,,,,,,,,,,,,2025-04-04 15h48.35.445944 +0200,,,2025-04-04_15h48.27.831,
experimental,15,,0,Jeroen moet stoom afblazen.,afblazen.,3,0.650851699989289,,,,,,,,,,,,,,,,,,,671836,,,,,,,,59.58246989538451,metaphors,,,,12,0,12,14,,,,,,,,12,0,12,,,001,,,,,,2024.2.4,,,,,,,,,,,,Jeroen blaast stoom weg van zijn hete thee.,Jeroen is gefrustreerd en moet hierover praten.,Jeroen heeft gesport en moet een cooling-down doen.,,,,,,,,,,,,,,,2025-04-04 15h48.35.445944 +0200,,,2025-04-04_15h48.27.831,
experimental,15,,0,Jeroen moet stoom afblazen.,,,,1,idiomatic,2.186713100061752,space,4.131629699957557,c,,None,2.186713100061752,space,4.131629699957557,c,,,,,,None,671836,,,,,,,,59.58246989538451,metaphors,,,None,12,0,12,14,None,,,,None,147.45243429997936,,12,0,12,,,001,147.4782476000255,147.4782476000255,None,151.6181897999486,147.4690363999689,2024.2.4,,,,,,,,,,151.61834079993423,151.61830480000935,Jeroen blaast stoom weg van zijn hete thee.,Jeroen is gefrustreerd en moet hierover praten.,Jeroen heeft gesport en moet een cooling-down doen.,,,,,,,,,,,,,,,2025-04-04 15h48.35.445944 +0200,,,2025-04-04_15h48.27.831,
filler,23,151.6288425999228,1,Lars staat een uur in de wind.,Lars,0,0.39913180004805326,,,,,,,,,,,,,,,,,,,671836,,,,,,,,59.58246989538451,metaphors,,,,13,0,13,22,,,152.62886799999978,152.62886799999978,,,152.61722569994163,13,0,13,,,001,,,,,,2024.2.4,,,,,,,,,,,,Lars staat buiten in de wind te wachten.,Lars stinkt verschrikkelijk.,Lars krijgt veel kritiek.,,,,,,,152.62886799999978,151.6288425999228,152.61708060000092,151.61855269991793,,,,,2025-04-04 15h48.35.445944 +0200,,,2025-04-04_15h48.27.831,
filler,23,,1,Lars staat een uur in de wind.,staat,1,0.6003666999749839,,,,,,,,,,,,,,,,,,,671836,,,,,,,,59.58246989538451,metaphors,,,,13,0,13,22,,,,,,,,13,0,13,,,001,,,,,,2024.2.4,,,,,,,,,,,,Lars staat buiten in de wind te wachten.,Lars stinkt verschrikkelijk.,Lars krijgt veel kritiek.,,,,,,,,,,,,,,,2025-04-04 15h48.35.445944 +0200,,,2025-04-04_15h48.27.831,
filler,23,,1,Lars staat een uur in de wind.,een,2,0.5499940000008792,,,,,,,,,,,,,,,,,,,671836,,,,,,,,59.58246989538451,metaphors,,,,13,0,13,22,,,,,,,,13,0,13,,,001,,,,,,2024.2.4,,,,,,,,,,,,Lars staat buiten in de wind te wachten.,Lars stinkt verschrikkelijk.,Lars krijgt veel kritiek.,,,,,,,,,,,,,,,2025-04-04 15h48.35.445944 +0200,,,2025-04-04_15h48.27.831,
filler,23,,1,Lars staat een uur in de wind.,uur,3,0.5501632000086829,,,,,,,,,,,,,,,,,,,671836,,,,,,,,59.58246989538451,metaphors,,,,13,0,13,22,,,,,,,,13,0,13,,,001,,,,,,2024.2.4,,,,,,,,,,,,Lars staat buiten in de wind te wachten.,Lars stinkt verschrikkelijk.,Lars krijgt veel kritiek.,,,,,,,,,,,,,,,2025-04-04 15h48.35.445944 +0200,,,2025-04-04_15h48.27.831,
filler,23,,1,Lars staat een uur in de wind.,in,4,0.4157792000332847,,,,,,,,,,,,,,,,,,,671836,,,,,,,,59.58246989538451,metaphors,,,,13,0,13,22,,,,,,,,13,0,13,,,001,,,,,,2024.2.4,,,,,,,,,,,,Lars staat buiten in de wind te wachten.,Lars stinkt verschrikkelijk.,Lars krijgt veel kritiek.,,,,,,,,,,,,,,,2025-04-04 15h48.35.445944 +0200,,,2025-04-04_15h48.27.831,
filler,23,,1,Lars staat een uur in de wind.,de,5,0.6836723999585956,,,,,,,,,,,,,,,,,,,671836,,,,,,,,59.58246989538451,metaphors,,,,13,0,13,22,,,,,,,,13,0,13,,,001,,,,,,2024.2.4,,,,,,,,,,,,Lars staat buiten in de wind te wachten.,Lars stinkt verschrikkelijk.,Lars krijgt veel kritiek.,,,,,,,,,,,,,,,2025-04-04 15h48.35.445944 +0200,,,2025-04-04_15h48.27.831,
filler,23,,1,Lars staat een uur in de wind.,wind.,6,0.7668424999574199,,,,,,,,,,,,,,,,,,,671836,,,,,,,,59.58246989538451,metaphors,,,,13,0,13,22,,,,,,,,13,0,13,,,001,,,,,,2024.2.4,,,,,,,,,,,,Lars staat buiten in de wind te wachten.,Lars stinkt verschrikkelijk.,Lars krijgt veel kritiek.,,,,,,,,,,,,,,,2025-04-04 15h48.35.445944 +0200,,,2025-04-04_15h48.27.831,
filler,23,,1,Lars staat een uur in de wind.,,,,1,literal,3.944814799935557,space,4.022961700102314,b,,None,3.944814799935557,space,4.022961700102314,b,,,,,,None,671836,,,,,,,,59.58246989538451,metaphors,,,None,13,0,13,22,None,,,,None,156.5851638999302,,13,0,13,,,001,156.6117389999563,156.6117389999563,None,160.65088779991493,156.59702069999184,2024.2.4,,,,,,,,,,160.65103930002078,160.65100279997569,Lars staat buiten in de wind te wachten.,Lars stinkt verschrikkelijk.,Lars krijgt veel kritiek.,,,,,,,,,,,,,,,2025-04-04 15h48.35.445944 +0200,,,2025-04-04_15h48.27.831,
filler,32,160.662063100026,0,Sandra heeft een gat in haar zak.,Sandra,0,0.433330399915576,,,,,,,,,,,,,,,,,,,671836,,,,,,,,59.58246989538451,metaphors,,,,14,0,14,31,,,161.66245559998788,161.66245559998788,,,161.64998380001634,14,0,14,,,001,,,,,,2024.2.4,,,,,,,,,,,,Sandra heeft een gat in haar zak.,Sandra geeft gemakkelijk geld uit.,Sandra verliest vaak spullen.,,,,,,,161.66245559998788,160.662063100026,161.64984800003003,160.65125230001286,,,,,2025-04-04 15h48.35.445944 +0200,,,2025-04-04_15h48.27.831,
filler,32,,0,Sandra heeft een gat in haar zak.,heeft,1,0.4662452000193298,,,,,,,,,,,,,,,,,,,671836,,,,,,,,59.58246989538451,metaphors,,,,14,0,14,31,,,,,,,,14,0,14,,,001,,,,,,2024.2.4,,,,,,,,,,,,Sandra heeft een gat in haar zak.,Sandra geeft gemakkelijk geld uit.,Sandra verliest vaak spullen.,,,,,,,,,,,,,,,2025-04-04 15h48.35.445944 +0200,,,2025-04-04_15h48.27.831,
filler,32,,0,Sandra heeft een gat in haar zak.,een,2,0.6333613999886438,,,,,,,,,,,,,,,,,,,671836,,,,,,,,59.58246989538451,metaphors,,,,14,0,14,31,,,,,,,,14,0,14,,,001,,,,,,2024.2.4,,,,,,,,,,,,Sandra heeft een gat in haar zak.,Sandra geeft gemakkelijk geld uit.,Sandra verliest vaak spullen.,,,,,,,,,,,,,,,2025-04-04 15h48.35.445944 +0200,,,2025-04-04_15h48.27.831,
filler,32,,0,Sandra heeft een gat in haar zak.,gat,3,0.41636879998259246,,,,,,,,,,,,,,,,,,,671836,,,,,,,,59.58246989538451,metaphors,,,,14,0,14,31,,,,,,,,14,0,14,,,001,,,,,,2024.2.4,,,,,,,,,,,,Sandra heeft een gat in haar zak.,Sandra geeft gemakkelijk geld uit.,Sandra verliest vaak spullen.,,,,,,,,,,,,,,,2025-04-04 15h48.35.445944 +0200,,,2025-04-04_15h48.27.831,
filler,32,,0,Sandra heeft een gat in haar zak.,in,4,0.5668639000505209,,,,,,,,,,,,,,,,,,,671836,,,,,,,,59.58246989538451,metaphors,,,,14,0,14,31,,,,,,,,14,0,14,,,001,,,,,,2024.2.4,,,,,,,,,,,,Sandra heeft een gat in haar zak.,Sandra geeft gemakkelijk geld uit.,Sandra verliest vaak spullen.,,,,,,,,,,,,,,,2025-04-04 15h48.35.445944 +0200,,,2025-04-04_15h48.27.831,
filler,32,,0,Sandra heeft een gat in haar zak.,haar,5,0.4007162000052631,,,,,,,,,,,,,,,,,,,671836,,,,,,,,59.58246989538451,metaphors,,,,14,0,14,31,,,,,,,,14,0,14,,,001,,,,,,2024.2.4,,,,,,,,,,,,Sandra heeft een gat in haar zak.,Sandra geeft gemakkelijk geld uit.,Sandra verliest vaak spullen.,,,,,,,,,,,,,,,2025-04-04 15h48.35.445944 +0200,,,2025-04-04_15h48.27.831,
filler,32,,0,Sandra heeft een gat in haar zak.,zak.,6,0.5663607000606135,,,,,,,,,,,,,,,,,,,671836,,,,,,,,59.58246989538451,metaphors,,,,14,0,14,31,,,,,,,,14,0,14,,,001,,,,,,2024.2.4,,,,,,,,,,,,Sandra heeft een gat in haar zak.,Sandra geeft gemakkelijk geld uit.,Sandra verliest vaak spullen.,,,,,,,,,,,,,,,2025-04-04 15h48.35.445944 +0200,,,2025-04-04_15h48.27.831,
filler,32,,0,Sandra heeft een gat in haar zak.,,,,1,literal,3.4695380999473855,space,2.7812356000067666,a,,None,3.4695380999473855,space,2.7812356000067666,a,,,,,,None,671836,,,,,,,,59.58246989538451,metaphors,,,None,14,0,14,31,None,,,,None,165.13497659994755,,14,0,14,,,001,165.16119689994957,165.16119689994957,None,167.95176600001287,165.14674829994328,2024.2.4,,,,,,,,,,167.9519218999194,167.9518851999892,Sandra heeft een gat in haar zak.,Sandra geeft gemakkelijk geld uit.,Sandra verliest vaak spullen.,,,,,,,,,,,,,,,2025-04-04 15h48.35.445944 +0200,,,2025-04-04_15h48.27.831,
experimental,13,167.96203469997272,0,Mees zet de boel op stelten.,Mees,0,0.34982580004725605,,,,,,,,,,,,,,,,,,,671836,,,,,,,,59.58246989538451,metaphors,,,,15,0,15,12,,,168.96183119993657,168.96183119993657,,,168.95030709996354,15,0,15,,,001,,,,,,2024.2.4,,,,,,,,,,,,Mees maakt ergens stelten onder.,Mees veroorzaakt onrust.,Mees begint aan een nieuw project.,,,,,,,168.96183119993657,167.96203469997272,168.95013659994584,167.95213679992594,,,,,2025-04-04 15h48.35.445944 +0200,,,2025-04-04_15h48.27.831,
experimental,13,,0,Mees zet de boel op stelten.,zet,1,0.5661227999953553,,,,,,,,,,,,,,,,,,,671836,,,,,,,,59.58246989538451,metaphors,,,,15,0,15,12,,,,,,,,15,0,15,,,001,,,,,,2024.2.4,,,,,,,,,,,,Mees maakt ergens stelten onder.,Mees veroorzaakt onrust.,Mees begint aan een nieuw project.,,,,,,,,,,,,,,,2025-04-04 15h48.35.445944 +0200,,,2025-04-04_15h48.27.831,
experimental,13,,0,Mees zet de boel op stelten.,de,2,0.4339701000135392,,,,,,,,,,,,,,,,,,,671836,,,,,,,,59.58246989538451,metaphors,,,,15,0,15,12,,,,,,,,15,0,15,,,001,,,,,,2024.2.4,,,,,,,,,,,,Mees maakt ergens stelten onder.,Mees veroorzaakt onrust.,Mees begint aan een nieuw project.,,,,,,,,,,,,,,,2025-04-04 15h48.35.445944 +0200,,,2025-04-04_15h48.27.831,
experimental,13,,0,Mees zet de boel op stelten.,boel,3,0.5160194999771193,,,,,,,,,,,,,,,,,,,671836,,,,,,,,59.58246989538451,metaphors,,,,15,0,15,12,,,,,,,,15,0,15,,,001,,,,,,2024.2.4,,,,,,,,,,,,Mees maakt ergens stelten onder.,Mees veroorzaakt onrust.,Mees begint aan een nieuw project.,,,,,,,,,,,,,,,2025-04-04 15h48.35.445944 +0200,,,2025-04-04_15h48.27.831,
experimental,13,,0,Mees zet de boel op stelten.,op,4,0.6667607000563294,,,,,,,,,,,,,,,,,,,671836,,,,,,,,59.58246989538451,metaphors,,,,15,0,15,12,,,,,,,,15,0,15,,,001,,,,,,2024.2.4,,,,,,,,,,,,Mees maakt ergens stelten onder.,Mees veroorzaakt onrust.,Mees begint aan een nieuw project.,,,,,,,,,,,,,,,2025-04-04 15h48.35.445944 +0200,,,2025-04-04_15h48.27.831,
experimental,13,,0,Mees zet de boel op stelten.,stelten.,5,0.7660487999673933,,,,,,,,,,,,,,,,,,,671836,,,,,,,,59.58246989538451,metaphors,,,,15,0,15,12,,,,,,,,15,0,15,,,001,,,,,,2024.2.4,,,,,,,,,,,,Mees maakt ergens stelten onder.,Mees veroorzaakt onrust.,Mees begint aan een nieuw project.,,,,,,,,,,,,,,,2025-04-04 15h48.35.445944 +0200,,,2025-04-04_15h48.27.831,
experimental,13,,0,Mees zet de boel op stelten.,,,,1,idiomatic,3.2728057999629527,space,6.659002500004135,c,1.829103900003247,space,3.2728057999629527,space,6.659002500004135,c,,,,,1.829103900003247,space,671836,,,,,,,,59.58246989538451,metaphors,,,None,15,0,15,12,None,None,,,None,172.25085620000027,,15,0,15,,,001,172.27812439994887,172.27812439994887,None,178.95108459994663,172.26264039997477,2024.2.4,,,,,,,178.97761309996713,178.97761309996713,None,180.817306599929,178.96036069991533,Mees maakt ergens stelten onder.,Mees veroorzaakt onrust.,Mees begint aan een nieuw project.,,,,,,,,,,,,,,,2025-04-04 15h48.35.445944 +0200,,,2025-04-04_15h48.27.831,
experimental,2,180.8284642000217,1,Stijn loopt me voor de voeten.,Stijn,0,0.5154489000560716,,,,,,,,,,,,,,,,,,,671836,,,,,,,,59.58246989538451,metaphors,,,,16,0,16,1,,,181.82808659994043,181.82808659994043,,,181.81741279992275,16,0,16,,,001,,,,,,2024.2.4,,,,,,,,,,,,Stijn loopt voor mij.,Stijn hindert mij.,Stijn neemt de leiding.,,,,,,,181.82808659994043,180.8284642000217,181.81726529996376,180.81758919998538,,,,,2025-04-04 15h48.35.445944 +0200,,,2025-04-04_15h48.27.831,
experimental,2,,1,Stijn loopt me voor de voeten.,loopt,1,0.41619129991158843,,,,,,,,,,,,,,,,,,,671836,,,,,,,,59.58246989538451,metaphors,,,,16,0,16,1,,,,,,,,16,0,16,,,001,,,,,,2024.2.4,,,,,,,,,,,,Stijn loopt voor mij.,Stijn hindert mij.,Stijn neemt de leiding.,,,,,,,,,,,,,,,2025-04-04 15h48.35.445944 +0200,,,2025-04-04_15h48.27.831,
experimental,2,,1,Stijn loopt me voor de voeten.,me,2,0.5836994000710547,,,,,,,,,,,,,,,,,,,671836,,,,,,,,59.58246989538451,metaphors,,,,16,0,16,1,,,,,,,,16,0,16,,,001,,,,,,2024.2.4,,,,,,,,,,,,Stijn loopt voor mij.,Stijn hindert mij.,Stijn neemt de leiding.,,,,,,,,,,,,,,,2025-04-04 15h48.35.445944 +0200,,,2025-04-04_15h48.27.831,
experimental,2,,1,Stijn loopt me voor de voeten.,voor,3,0.48313850001432,,,,,,,,,,,,,,,,,,,671836,,,,,,,,59.58246989538451,metaphors,,,,16,0,16,1,,,,,,,,16,0,16,,,001,,,,,,2024.2.4,,,,,,,,,,,,Stijn loopt voor mij.,Stijn hindert mij.,Stijn neemt de leiding.,,,,,,,,,,,,,,,2025-04-04 15h48.35.445944 +0200,,,2025-04-04_15h48.27.831,
experimental,2,,1,Stijn loopt me voor de voeten.,de,4,0.5838414001045749,,,,,,,,,,,,,,,,,,,671836,,,,,,,,59.58246989538451,metaphors,,,,16,0,16,1,,,,,,,,16,0,16,,,001,,,,,,2024.2.4,,,,,,,,,,,,Stijn loopt voor mij.,Stijn hindert mij.,Stijn neemt de leiding.,,,,,,,,,,,,,,,2025-04-04 15h48.35.445944 +0200,,,2025-04-04_15h48.27.831,
experimental,2,,1,Stijn loopt me voor de voeten.,voeten.,5,0.549833899945952,,,,,,,,,,,,,,,,,,,671836,,,,,,,,59.58246989538451,metaphors,,,,16,0,16,1,,,,,,,,16,0,16,,,001,,,,,,2024.2.4,,,,,,,,,,,,Stijn loopt voor mij.,Stijn hindert mij.,Stijn neemt de leiding.,,,,,,,,,,,,,,,2025-04-04 15h48.35.445944 +0200,,,2025-04-04_15h48.27.831,
experimental,2,,1,Stijn loopt me voor de voeten.,,,,1,idiomatic,3.1201909999363124,space,2.3666190000949427,c,,None,3.1201909999363124,space,2.3666190000949427,c,,,,,,None,671836,,,,,,,,59.58246989538451,metaphors,,,None,16,0,16,1,None,,,,None,184.95148449996486,,16,0,16,,,001,184.97840469994117,184.97840469994117,None,187.3505016999552,184.96222889993805,2024.2.4,,,,,,,,,,187.350656399969,187.35061860003043,Stijn loopt voor mij.,Stijn hindert mij.,Stijn neemt de leiding.,,,,,,,,,,,,,,,2025-04-04 15h48.35.445944 +0200,,,2025-04-04_15h48.27.831,
experimental,6,187.36138859996572,1,Wim heeft een kort lontje.,Wim,0,0.5328306000446901,,,,,,,,,,,,,,,,,,,671836,,,,,,,,59.58246989538451,metaphors,,,,17,0,17,5,,,188.36188480001874,188.36188480001874,,,188.3501360999653,17,0,17,,,001,,,,,,2024.2.4,,,,,,,,,,,,Wim heeft vuurwerk met een kort lontje.,Wim wordt snel boos.,Wim wordt snel moe.,,,,,,,188.36188480001874,187.36138859996572,188.34999399993103,187.35086899995804,,,,,2025-04-04 15h48.35.445944 +0200,,,2025-04-04_15h48.27.831,
experimental,6,,1,Wim heeft een kort lontje.,heeft,1,0.4340315000154078,,,,,,,,,,,,,,,,,,,671836,,,,,,,,59.58246989538451,metaphors,,,,17,0,17,5,,,,,,,,17,0,17,,,001,,,,,,2024.2.4,,,,,,,,,,,,Wim heeft vuurwerk met een kort lontje.,Wim wordt snel boos.,Wim wordt snel moe.,,,,,,,,,,,,,,,2025-04-04 15h48.35.445944 +0200,,,2025-04-04_15h48.27.831,
experimental,6,,1,Wim heeft een kort lontje.,een,2,0.5320694000693038,,,,,,,,,,,,,,,,,,,671836,,,,,,,,59.58246989538451,metaphors,,,,17,0,17,5,,,,,,,,17,0,17,,,001,,,,,,2024.2.4,,,,,,,,,,,,Wim heeft vuurwerk met een kort lontje.,Wim wordt snel boos.,Wim wordt snel moe.,,,,,,,,,,,,,,,2025-04-04 15h48.35.445944 +0200,,,2025-04-04_15h48.27.831,
experimental,6,,1,Wim heeft een kort lontje.,kort,3,0.6013558999402449,,,,,,,,,,,,,,,,,,,671836,,,,,,,,59.58246989538451,metaphors,,,,17,0,17,5,,,,,,,,17,0,17,,,001,,,,,,2024.2.4,,,,,,,,,,,,Wim heeft vuurwerk met een kort lontje.,Wim wordt snel boos.,Wim wordt snel moe.,,,,,,,,,,,,,,,2025-04-04 15h48.35.445944 +0200,,,2025-04-04_15h48.27.831,
experimental,6,,1,Wim heeft een kort lontje.,lontje.,4,0.3654956000391394,,,,,,,,,,,,,,,,,,,671836,,,,,,,,59.58246989538451,metaphors,,,,17,0,17,5,,,,,,,,17,0,17,,,001,,,,,,2024.2.4,,,,,,,,,,,,Wim heeft vuurwerk met een kort lontje.,Wim wordt snel boos.,Wim wordt snel moe.,,,,,,,,,,,,,,,2025-04-04 15h48.35.445944 +0200,,,2025-04-04_15h48.27.831,
experimental,6,,1,Wim heeft een kort lontje.,,,,1,idiomatic,2.4496142000425607,space,1.4896103999344632,a,,None,2.4496142000425607,space,1.4896103999344632,a,,,,,,None,671836,,,,,,,,59.58246989538451,metaphors,,,None,17,0,17,5,None,,,,None,190.81767489993945,,17,0,17,,,001,190.84443289996125,190.84443289996125,None,192.35046460002195,190.82926059991587,2024.2.4,,,,,,,,,,192.3506201999262,192.35058359999675,Wim heeft vuurwerk met een kort lontje.,Wim wordt snel boos.,Wim wordt snel moe.,,,,,,,,,,,,,,,2025-04-04 15h48.35.445944 +0200,,,2025-04-04_15h48.27.831,
filler,21,192.3615923000034,1,Thijs maakt de eerste sprong.,Thijs,0,0.5824561000335962,,,,,,,,,,,,,,,,,,,671836,,,,,,,,59.58246989538451,metaphors,,,,18,0,18,20,,,193.36158609995618,193.36158609995618,,,193.3497547999723,18,0,18,,,001,,,,,,2024.2.4,,,,,,,,,,,,Thijs springt als eerste.,Thijs neemt initiatief.,Thijs probeert iets nieuws.,,,,,,,193.36158609995618,192.3615923000034,193.34961049992125,192.3508356999373,,,,,2025-04-04 15h48.35.445944 +0200,,,2025-04-04_15h48.27.831,
filler,21,,1,Thijs maakt de eerste sprong.,maakt,1,0.41699709999375045,,,,,,,,,,,,,,,,,,,671836,,,,,,,,59.58246989538451,metaphors,,,,18,0,18,20,,,,,,,,18,0,18,,,001,,,,,,2024.2.4,,,,,,,,,,,,Thijs springt als eerste.,Thijs neemt initiatief.,Thijs probeert iets nieuws.,,,,,,,,,,,,,,,2025-04-04 15h48.35.445944 +0200,,,2025-04-04_15h48.27.831,
filler,21,,1,Thijs maakt de eerste sprong.,de,2,0.5006082999752834,,,,,,,,,,,,,,,,,,,671836,,,,,,,,59.58246989538451,metaphors,,,,18,0,18,20,,,,,,,,18,0,18,,,001,,,,,,2024.2.4,,,,,,,,,,,,Thijs springt als eerste.,Thijs neemt initiatief.,Thijs probeert iets nieuws.,,,,,,,,,,,,,,,2025-04-04 15h48.35.445944 +0200,,,2025-04-04_15h48.27.831,
filler,21,,1,Thijs maakt de eerste sprong.,eerste,3,0.33307629998307675,,,,,,,,,,,,,,,,,,,671836,,,,,,,,59.58246989538451,metaphors,,,,18,0,18,20,,,,,,,,18,0,18,,,001,,,,,,2024.2.4,,,,,,,,,,,,Thijs springt als eerste.,Thijs neemt initiatief.,Thijs probeert iets nieuws.,,,,,,,,,,,,,,,2025-04-04 15h48.35.445944 +0200,,,2025-04-04_15h48.27.831,
filler,21,,1,Thijs maakt de eerste sprong.,sprong.,4,0.44945900002494454,,,,,,,,,,,,,,,,,,,671836,,,,,,,,59.58246989538451,metaphors,,,,18,0,18,20,,,,,,,,18,0,18,,,001,,,,,,2024.2.4,,,,,,,,,,,,Thijs springt als eerste.,Thijs neemt initiatief.,Thijs probeert iets nieuws.,,,,,,,,,,,,,,,2025-04-04 15h48.35.445944 +0200,,,2025-04-04_15h48.27.831,
filler,21,,1,Thijs maakt de eerste sprong.,,,,1,literal,2.2558811999624595,space,4.252492800005712,b,,None,2.2558811999624595,space,4.252492800005712,b,,,,,,None,671836,,,,,,,,59.58246989538451,metaphors,,,None,18,0,18,20,None,,,,None,195.63420219998807,,18,0,18,,,001,195.66056460002437,195.66056460002437,None,199.91706849995535,195.64527889993042,2024.2.4,,,,,,,,,,199.91722089995164,199.91718450002372,Thijs springt als eerste.,Thijs neemt initiatief.,Thijs probeert iets nieuws.,,,,,,,,,,,,,,,2025-04-04 15h48.35.445944 +0200,,,2025-04-04_15h48.27.831,
filler,26,199.92811610002536,0,David zet Jesse in de lift.,David,0,0.533396500046365,,,,,,,,,,,,,,,,,,,671836,,,,,,,,59.58246989538451,metaphors,,,,19,0,19,25,,,200.92807669995818,200.92807669995818,,,200.91616289992817,19,0,19,,,001,,,,,,2024.2.4,,,,,,,,,,,,David zet Jesse in een lift.,David geeft Jesse een compliment.,David tilt Jesse op.,,,,,,,200.92807669995818,199.92811610002536,200.91602459992282,199.917436299962,,,,,2025-04-04 15h48.35.445944 +0200,,,2025-04-04_15h48.27.831,
filler,26,,0,David zet Jesse in de lift.,zet,1,0.4493666000198573,,,,,,,,,,,,,,,,,,,671836,,,,,,,,59.58246989538451,metaphors,,,,19,0,19,25,,,,,,,,19,0,19,,,001,,,,,,2024.2.4,,,,,,,,,,,,David zet Jesse in een lift.,David geeft Jesse een compliment.,David tilt Jesse op.,,,,,,,,,,,,,,,2025-04-04 15h48.35.445944 +0200,,,2025-04-04_15h48.27.831,
filler,26,,0,David zet Jesse in de lift.,Jesse,2,0.5681319000432268,,,,,,,,,,,,,,,,,,,671836,,,,,,,,59.58246989538451,metaphors,,,,19,0,19,25,,,,,,,,19,0,19,,,001,,,,,,2024.2.4,,,,,,,,,,,,David zet Jesse in een lift.,David geeft Jesse een compliment.,David tilt Jesse op.,,,,,,,,,,,,,,,2025-04-04 15h48.35.445944 +0200,,,2025-04-04_15h48.27.831,
filler,26,,0,David zet Jesse in de lift.,in,3,0.3983874999685213,,,,,,,,,,,,,,,,,,,671836,,,,,,,,59.58246989538451,metaphors,,,,19,0,19,25,,,,,,,,19,0,19,,,001,,,,,,2024.2.4,,,,,,,,,,,,David zet Jesse in een lift.,David geeft Jesse een compliment.,David tilt Jesse op.,,,,,,,,,,,,,,,2025-04-04 15h48.35.445944 +0200,,,2025-04-04_15h48.27.831,
filler,26,,0,David zet Jesse in de lift.,de,4,0.3844033000059426,,,,,,,,,,,,,,,,,,,671836,,,,,,,,59.58246989538451,metaphors,,,,19,0,19,25,,,,,,,,19,0,19,,,001,,,,,,2024.2.4,,,,,,,,,,,,David zet Jesse in een lift.,David geeft Jesse een compliment.,David tilt Jesse op.,,,,,,,,,,,,,,,2025-04-04 15h48.35.445944 +0200,,,2025-04-04_15h48.27.831,
filler,26,,0,David zet Jesse in de lift.,lift.,5,0.46551880007609725,,,,,,,,,,,,,,,,,,,671836,,,,,,,,59.58246989538451,metaphors,,,,19,0,19,25,,,,,,,,19,0,19,,,001,,,,,,2024.2.4,,,,,,,,,,,,David zet Jesse in een lift.,David geeft Jesse een compliment.,David tilt Jesse op.,,,,,,,,,,,,,,,2025-04-04 15h48.35.445944 +0200,,,2025-04-04_15h48.27.831,
filler,26,,0,David zet Jesse in de lift.,,,,1,literal,2.7839751000283286,space,4.4909944999963045,c,,None,2.7839751000283286,space,4.4909944999963045,c,,,,,,None,671836,,,,,,,,59.58246989538451,metaphors,,,None,19,0,19,25,None,,,,None,203.71713479992468,,19,0,19,,,001,203.74409759999253,203.74409759999253,None,208.2509348000167,203.72878999996465,2024.2.4,,,,,,,,,,208.2510877000168,208.25105159997474,David zet Jesse in een lift.,David geeft Jesse een compliment.,David tilt Jesse op.,,,,,,,,,,,,,,,2025-04-04 15h48.35.445944 +0200,,,2025-04-04_15h48.27.831,
experimental,7,208.26073280000128,1,Tim helpt Niels uit de brand.,Tim,0,0.8833842999301851,,,,,,,,,,,,,,,,,,,671836,,,,,,,,59.58246989538451,metaphors,,,,20,0,20,6,,,209.2610259000212,209.2610259000212,,,209.24885159998666,20,0,20,,,001,,,,,,2024.2.4,,,,,,,,,,,,"Tim redt Niels, omdat er brand is.",Tim helpt Niels met grote problemen.,Tim helpt Niels met vuur maken.,,,,,,,209.2610259000212,208.26073280000128,209.2487140999874,208.2512990999967,,,,,2025-04-04 15h48.35.445944 +0200,,,2025-04-04_15h48.27.831,
experimental,7,,1,Tim helpt Niels uit de brand.,helpt,1,0.6328698000870645,,,,,,,,,,,,,,,,,,,671836,,,,,,,,59.58246989538451,metaphors,,,,20,0,20,6,,,,,,,,20,0,20,,,001,,,,,,2024.2.4,,,,,,,,,,,,"Tim redt Niels, omdat er brand is.",Tim helpt Niels met grote problemen.,Tim helpt Niels met vuur maken.,,,,,,,,,,,,,,,2025-04-04 15h48.35.445944 +0200,,,2025-04-04_15h48.27.831,
experimental,7,,1,Tim helpt Niels uit de brand.,Niels,2,0.36699939996469766,,,,,,,,,,,,,,,,,,,671836,,,,,,,,59.58246989538451,metaphors,,,,20,0,20,6,,,,,,,,20,0,20,,,001,,,,,,2024.2.4,,,,,,,,,,,,"Tim redt Niels, omdat er brand is.",Tim helpt Niels met grote problemen.,Tim helpt Niels met vuur maken.,,,,,,,,,,,,,,,2025-04-04 15h48.35.445944 +0200,,,2025-04-04_15h48.27.831,
experimental,7,,1,Tim helpt Niels uit de brand.,uit,3,0.5169047999661416,,,,,,,,,,,,,,,,,,,671836,,,,,,,,59.58246989538451,metaphors,,,,20,0,20,6,,,,,,,,20,0,20,,,001,,,,,,2024.2.4,,,,,,,,,,,,"Tim redt Niels, omdat er brand is.",Tim helpt Niels met grote problemen.,Tim helpt Niels met vuur maken.,,,,,,,,,,,,,,,2025-04-04 15h48.35.445944 +0200,,,2025-04-04_15h48.27.831,
experimental,7,,1,Tim helpt Niels uit de brand.,de,4,0.35011630004737526,,,,,,,,,,,,,,,,,,,671836,,,,,,,,59.58246989538451,metaphors,,,,20,0,20,6,,,,,,,,20,0,20,,,001,,,,,,2024.2.4,,,,,,,,,,,,"Tim redt Niels, omdat er brand is.",Tim helpt Niels met grote problemen.,Tim helpt Niels met vuur maken.,,,,,,,,,,,,,,,2025-04-04 15h48.35.445944 +0200,,,2025-04-04_15h48.27.831,
experimental,7,,1,Tim helpt Niels uit de brand.,brand.,5,0.5334591999417171,,,,,,,,,,,,,,,,,,,671836,,,,,,,,59.58246989538451,metaphors,,,,20,0,20,6,,,,,,,,20,0,20,,,001,,,,,,2024.2.4,,,,,,,,,,,,"Tim redt Niels, omdat er brand is.",Tim helpt Niels met grote problemen.,Tim helpt Niels met vuur maken.,,,,,,,,,,,,,,,2025-04-04 15h48.35.445944 +0200,,,2025-04-04_15h48.27.831,
experimental,7,,1,Tim helpt Niels uit de brand.,,,,1,idiomatic,3.266810099943541,space,2.068193700048141,a,,None,3.266810099943541,space,2.068193700048141,a,,,,,,None,671836,,,,,,,,59.58246989538451,metaphors,,,None,20,0,20,6,None,,,,None,212.5345419999212,,20,0,20,,,001,212.56072740000673,212.56072740000673,None,214.63367180002388,212.54738539992832,2024.2.4,,,,,,,,,,214.63382350001484,214.63378749997355,"Tim redt Niels, omdat er brand is.",Tim helpt Niels met grote problemen.,Tim helpt Niels met vuur maken.,,,,,,,,,,,,,,,2025-04-04 15h48.35.445944 +0200,,,2025-04-04_15h48.27.831,
filler,25,214.64513570000418,0,Roos breekt het glas.,Roos,0,0.6154339000349864,,,,,,,,,,,,,,,,,,,671836,,,,,,,,59.58246989538451,metaphors,,,,21,0,21,24,,,215.6441750000231,215.6441750000231,,,215.63331069995183,21,0,21,,,001,,,,,,2024.2.4,,,,,,,,,,,,Roos breekt een glas.,Roos start het gesprek.,Roos neemt een besluit.,,,,,,,215.6441750000231,214.64513570000418,215.63316009996925,214.63403660000768,,,,,2025-04-04 15h48.35.445944 +0200,,,2025-04-04_15h48.27.831,
filler,25,,0,Roos breekt het glas.,breekt,1,0.43340169999282807,,,,,,,,,,,,,,,,,,,671836,,,,,,,,59.58246989538451,metaphors,,,,21,0,21,24,,,,,,,,21,0,21,,,001,,,,,,2024.2.4,,,,,,,,,,,,Roos breekt een glas.,Roos start het gesprek.,Roos neemt een besluit.,,,,,,,,,,,,,,,2025-04-04 15h48.35.445944 +0200,,,2025-04-04_15h48.27.831,
filler,25,,0,Roos breekt het glas.,het,2,0.5998082000296563,,,,,,,,,,,,,,,,,,,671836,,,,,,,,59.58246989538451,metaphors,,,,21,0,21,24,,,,,,,,21,0,21,,,001,,,,,,2024.2.4,,,,,,,,,,,,Roos breekt een glas.,Roos start het gesprek.,Roos neemt een besluit.,,,,,,,,,,,,,,,2025-04-04 15h48.35.445944 +0200,,,2025-04-04_15h48.27.831,
filler,25,,0,Roos breekt het glas.,glas.,3,1.2674049000488594,,,,,,,,,,,,,,,,,,,671836,,,,,,,,59.58246989538451,metaphors,,,,21,0,21,24,,,,,,,,21,0,21,,,001,,,,,,2024.2.4,,,,,,,,,,,,Roos breekt een glas.,Roos start het gesprek.,Roos neemt een besluit.,,,,,,,,,,,,,,,2025-04-04 15h48.35.445944 +0200,,,2025-04-04_15h48.27.831,
filler,25,,0,Roos breekt het glas.,,,,1,literal,2.8906709000002593,space,4.759274500072934,c,,None,2.8906709000002593,space,4.759274500072934,c,,,,,,None,671836,,,,,,,,59.58246989538451,metaphors,,,None,21,0,21,24,None,,,,None,218.55116539995652,,21,0,21,,,001,218.57685189996846,218.57685189996846,None,223.35026019997895,218.5619062000187,2024.2.4,,,,,,,,,,223.3504116999684,223.35037509992253,Roos breekt een glas.,Roos start het gesprek.,Roos neemt een besluit.,,,,,,,,,,,,,,,2025-04-04 15h48.35.445944 +0200,,,2025-04-04_15h48.27.831,
filler,22,223.36106579995248,1,Emma gaat met Iris om het vuur zitten.,Emma,0,0.9165306999348104,,,,,,,,,,,,,,,,,,,671836,,,,,,,,59.58246989538451,metaphors,,,,22,0,22,21,,,224.36098230001517,224.36098230001517,,,224.34888760000467,22,0,22,,,001,,,,,,2024.2.4,,,,,,,,,,,,Emma zit met Iris om het kampvuur.,Emma bespreekt iets met Iris.,Emma en Iris hebben ruzie.,,,,,,,224.36098230001517,223.36106579995248,224.34874139993917,223.35062579996884,,,,,2025-04-04 15h48.35.445944 +0200,,,2025-04-04_15h48.27.831,
filler,22,,1,Emma gaat met Iris om het vuur zitten.,gaat,1,0.6327856000280008,,,,,,,,,,,,,,,,,,,671836,,,,,,,,59.58246989538451,metaphors,,,,22,0,22,21,,,,,,,,22,0,22,,,001,,,,,,2024.2.4,,,,,,,,,,,,Emma zit met Iris om het kampvuur.,Emma bespreekt iets met Iris.,Emma en Iris hebben ruzie.,,,,,,,,,,,,,,,2025-04-04 15h48.35.445944 +0200,,,2025-04-04_15h48.27.831,
filler,22,,1,Emma gaat met Iris om het vuur zitten.,met,2,0.45052700000815094,,,,,,,,,,,,,,,,,,,671836,,,,,,,,59.58246989538451,metaphors,,,,22,0,22,21,,,,,,,,22,0,22,,,001,,,,,,2024.2.4,,,,,,,,,,,,Emma zit met Iris om het kampvuur.,Emma bespreekt iets met Iris.,Emma en Iris hebben ruzie.,,,,,,,,,,,,,,,2025-04-04 15h48.35.445944 +0200,,,2025-04-04_15h48.27.831,
filler,22,,1,Emma gaat met Iris om het vuur zitten.,Iris,3,0.5494039999321103,,,,,,,,,,,,,,,,,,,671836,,,,,,,,59.58246989538451,metaphors,,,,22,0,22,21,,,,,,,,22,0,22,,,001,,,,,,2024.2.4,,,,,,,,,,,,Emma zit met Iris om het kampvuur.,Emma bespreekt iets met Iris.,Emma en Iris hebben ruzie.,,,,,,,,,,,,,,,2025-04-04 15h48.35.445944 +0200,,,2025-04-04_15h48.27.831,
filler,22,,1,Emma gaat met Iris om het vuur zitten.,om,4,0.40050270000938326,,,,,,,,,,,,,,,,,,,671836,,,,,,,,59.58246989538451,metaphors,,,,22,0,22,21,,,,,,,,22,0,22,,,001,,,,,,2024.2.4,,,,,,,,,,,,Emma zit met Iris om het kampvuur.,Emma bespreekt iets met Iris.,Emma en Iris hebben ruzie.,,,,,,,,,,,,,,,2025-04-04 15h48.35.445944 +0200,,,2025-04-04_15h48.27.831,
filler,22,,1,Emma gaat met Iris om het vuur zitten.,het,5,0.46619329997338355,,,,,,,,,,,,,,,,,,,671836,,,,,,,,59.58246989538451,metaphors,,,,22,0,22,21,,,,,,,,22,0,22,,,001,,,,,,2024.2.4,,,,,,,,,,,,Emma zit met Iris om het kampvuur.,Emma bespreekt iets met Iris.,Emma en Iris hebben ruzie.,,,,,,,,,,,,,,,2025-04-04 15h48.35.445944 +0200,,,2025-04-04_15h48.27.831,
filler,22,,1,Emma gaat met Iris om het vuur zitten.,vuur,6,0.6171377999708056,,,,,,,,,,,,,,,,,,,671836,,,,,,,,59.58246989538451,metaphors,,,,22,0,22,21,,,,,,,,22,0,22,,,001,,,,,,2024.2.4,,,,,,,,,,,,Emma zit met Iris om het kampvuur.,Emma bespreekt iets met Iris.,Emma en Iris hebben ruzie.,,,,,,,,,,,,,,,2025-04-04 15h48.35.445944 +0200,,,2025-04-04_15h48.27.831,
filler,22,,1,Emma gaat met Iris om het vuur zitten.,zitten.,7,0.3991436999058351,,,,,,,,,,,,,,,,,,,671836,,,,,,,,59.58246989538451,metaphors,,,,22,0,22,21,,,,,,,,22,0,22,,,001,,,,,,2024.2.4,,,,,,,,,,,,Emma zit met Iris om het kampvuur.,Emma bespreekt iets met Iris.,Emma en Iris hebben ruzie.,,,,,,,,,,,,,,,2025-04-04 15h48.35.445944 +0200,,,2025-04-04_15h48.27.831,
filler,22,,1,Emma gaat met Iris om het vuur zitten.,,,,1,literal,4.404012799961492,space,1.7808894000481814,c,,None,4.404012799961492,space,1.7808894000481814,c,,,,,,None,671836,,,,,,,,59.58246989538451,metaphors,,,None,22,0,22,21,None,,,,None,228.7829043000238,,22,0,22,,,001,228.8100953999674,228.8100953999674,None,230.59982350002974,228.7952272000257,2024.2.4,,,,,,,,,,230.59997859993018,230.5999421000015,Emma zit met Iris om het kampvuur.,Emma bespreekt iets met Iris.,Emma en Iris hebben ruzie.,,,,,,,,,,,,,,,2025-04-04 15h48.35.445944 +0200,,,2025-04-04_15h48.27.831,
filler,31,230.61087370000314,0,Jan schiet uit zijn schoen.,Jan,0,0.7495739000150934,,,,,,,,,,,,,,,,,,,671836,,,,,,,,59.58246989538451,metaphors,,,,23,0,23,30,,,231.61078699992504,231.61078699992504,,,231.59940479998477,23,0,23,,,001,,,,,,2024.2.4,,,,,,,,,,,,Jan verliest zijn schoen,Jan wordt boos.,Jan struikelt.,,,,,,,231.61078699992504,230.61087370000314,231.59926199994516,230.60019709996413,,,,,2025-04-04 15h48.35.445944 +0200,,,2025-04-04_15h48.27.831,
filler,31,,0,Jan schiet uit zijn schoen.,schiet,1,0.63388420001138,,,,,,,,,,,,,,,,,,,671836,,,,,,,,59.58246989538451,metaphors,,,,23,0,23,30,,,,,,,,23,0,23,,,001,,,,,,2024.2.4,,,,,,,,,,,,Jan verliest zijn schoen,Jan wordt boos.,Jan struikelt.,,,,,,,,,,,,,,,2025-04-04 15h48.35.445944 +0200,,,2025-04-04_15h48.27.831,
filler,31,,0,Jan schiet uit zijn schoen.,uit,2,0.3655834000092,,,,,,,,,,,,,,,,,,,671836,,,,,,,,59.58246989538451,metaphors,,,,23,0,23,30,,,,,,,,23,0,23,,,001,,,,,,2024.2.4,,,,,,,,,,,,Jan verliest zijn schoen,Jan wordt boos.,Jan struikelt.,,,,,,,,,,,,,,,2025-04-04 15h48.35.445944 +0200,,,2025-04-04_15h48.27.831,
filler,31,,0,Jan schiet uit zijn schoen.,zijn,3,0.5665711000328884,,,,,,,,,,,,,,,,,,,671836,,,,,,,,59.58246989538451,metaphors,,,,23,0,23,30,,,,,,,,23,0,23,,,001,,,,,,2024.2.4,,,,,,,,,,,,Jan verliest zijn schoen,Jan wordt boos.,Jan struikelt.,,,,,,,,,,,,,,,2025-04-04 15h48.35.445944 +0200,,,2025-04-04_15h48.27.831,
filler,31,,0,Jan schiet uit zijn schoen.,schoen.,4,0.6494096999522299,,,,,,,,,,,,,,,,,,,671836,,,,,,,,59.58246989538451,metaphors,,,,23,0,23,30,,,,,,,,23,0,23,,,001,,,,,,2024.2.4,,,,,,,,,,,,Jan verliest zijn schoen,Jan wordt boos.,Jan struikelt.,,,,,,,,,,,,,,,2025-04-04 15h48.35.445944 +0200,,,2025-04-04_15h48.27.831,
filler,31,,0,Jan schiet uit zijn schoen.,,,,1,literal,2.9457725000102073,space,2.89734059991315,c,6.1556680999929085,space,2.9457725000102073,space,2.89734059991315,c,,,,,6.1556680999929085,space,671836,,,,,,,,59.58246989538451,metaphors,,,None,23,0,23,30,None,None,,,None,234.56596109992824,,23,0,23,,,001,234.59349250001833,234.59349250001833,None,237.49966839991976,234.57631279993802,2024.2.4,,,,,,,237.5265570000047,237.5265570000047,None,243.6992696999805,237.50900219997857,Jan verliest zijn schoen,Jan wordt boos.,Jan struikelt.,,,,,,,,,,,,,,,2025-04-04 15h48.35.445944 +0200,,,2025-04-04_15h48.27.831,
filler,20,243.71127520001028,1,Joep gaat onder de tafel.,Joep,0,0.7665669999551028,,,,,,,,,,,,,,,,,,,671836,,,,,,,,59.58246989538451,metaphors,,,,24,0,24,19,,,244.7107264000224,244.7107264000224,,,244.69852099998388,24,0,24,,,001,,,,,,2024.2.4,,,,,,,,,,,,Joep gaat onder de tafel zitten.,Joep wordt geopereerd.,Joep valt flauw.,,,,,,,244.7107264000224,243.71127520001028,244.69838009995874,243.69954659999348,,,,,2025-04-04 15h48.35.445944 +0200,,,2025-04-04_15h48.27.831,
filler,20,,1,Joep gaat onder de tafel.,gaat,1,0.5999645000556484,,,,,,,,,,,,,,,,,,,671836,,,,,,,,59.58246989538451,metaphors,,,,24,0,24,19,,,,,,,,24,0,24,,,001,,,,,,2024.2.4,,,,,,,,,,,,Joep gaat onder de tafel zitten.,Joep wordt geopereerd.,Joep valt flauw.,,,,,,,,,,,,,,,2025-04-04 15h48.35.445944 +0200,,,2025-04-04_15h48.27.831,
filler,20,,1,Joep gaat onder de tafel.,onder,2,0.466801599948667,,,,,,,,,,,,,,,,,,,671836,,,,,,,,59.58246989538451,metaphors,,,,24,0,24,19,,,,,,,,24,0,24,,,001,,,,,,2024.2.4,,,,,,,,,,,,Joep gaat onder de tafel zitten.,Joep wordt geopereerd.,Joep valt flauw.,,,,,,,,,,,,,,,2025-04-04 15h48.35.445944 +0200,,,2025-04-04_15h48.27.831,
filler,20,,1,Joep gaat onder de tafel.,de,3,0.6498915000120178,,,,,,,,,,,,,,,,,,,671836,,,,,,,,59.58246989538451,metaphors,,,,24,0,24,19,,,,,,,,24,0,24,,,001,,,,,,2024.2.4,,,,,,,,,,,,Joep gaat onder de tafel zitten.,Joep wordt geopereerd.,Joep valt flauw.,,,,,,,,,,,,,,,2025-04-04 15h48.35.445944 +0200,,,2025-04-04_15h48.27.831,
filler,20,,1,Joep gaat onder de tafel.,tafel.,4,0.7495911000296474,,,,,,,,,,,,,,,,,,,671836,,,,,,,,59.58246989538451,metaphors,,,,24,0,24,19,,,,,,,,24,0,24,,,001,,,,,,2024.2.4,,,,,,,,,,,,Joep gaat onder de tafel zitten.,Joep wordt geopereerd.,Joep valt flauw.,,,,,,,,,,,,,,,2025-04-04 15h48.35.445944 +0200,,,2025-04-04_15h48.27.831,
filler,20,,1,Joep gaat onder de tafel.,,,,1,literal,3.2099229999585077,space,3.282114899950102,c,,None,3.2099229999585077,space,3.282114899950102,c,,,,,,None,671836,,,,,,,,59.58246989538451,metaphors,,,None,24,0,24,19,None,,,,None,247.9329812999349,,24,0,24,,,001,247.9597713999683,247.9597713999683,None,251.25001600000542,247.94383949995972,2024.2.4,,,,,,,,,,251.25016599998344,251.250128799933,Joep gaat onder de tafel zitten.,Joep wordt geopereerd.,Joep valt flauw.,,,,,,,,,,,,,,,2025-04-04 15h48.35.445944 +0200,,,2025-04-04_15h48.27.831,
experimental,5,251.2604188999394,1,Anna neemt te veel hooi op haar vork.,Anna,0,0.500670500099659,,,,,,,,,,,,,,,,,,,671836,,,,,,,,59.58246989538451,metaphors,,,,25,0,25,4,,,252.2601254999172,252.2601254999172,,,252.24862809991464,25,0,25,,,001,,,,,,2024.2.4,,,,,,,,,,,,Anna schept te veel hooi tegelijk op.,Anna wil meer werk doen dan ze aankan.,Anna schept te veel eten op haar bord.,,,,,,,252.2601254999172,251.2604188999394,252.24848169996403,251.25037959998008,,,,,2025-04-04 15h48.35.445944 +0200,,,2025-04-04_15h48.27.831,
experimental,5,,1,Anna neemt te veel hooi op haar vork.,neemt,1,0.665071600000374,,,,,,,,,,,,,,,,,,,671836,,,,,,,,59.58246989538451,metaphors,,,,25,0,25,4,,,,,,,,25,0,25,,,001,,,,,,2024.2.4,,,,,,,,,,,,Anna schept te veel hooi tegelijk op.,Anna wil meer werk doen dan ze aankan.,Anna schept te veel eten op haar bord.,,,,,,,,,,,,,,,2025-04-04 15h48.35.445944 +0200,,,2025-04-04_15h48.27.831,
experimental,5,,1,Anna neemt te veel hooi op haar vork.,te,2,0.5175188999855891,,,,,,,,,,,,,,,,,,,671836,,,,,,,,59.58246989538451,metaphors,,,,25,0,25,4,,,,,,,,25,0,25,,,001,,,,,,2024.2.4,,,,,,,,,,,,Anna schept te veel hooi tegelijk op.,Anna wil meer werk doen dan ze aankan.,Anna schept te veel eten op haar bord.,,,,,,,,,,,,,,,2025-04-04 15h48.35.445944 +0200,,,2025-04-04_15h48.27.831,
experimental,5,,1,Anna neemt te veel hooi op haar vork.,veel,3,0.5164142999565229,,,,,,,,,,,,,,,,,,,671836,,,,,,,,59.58246989538451,metaphors,,,,25,0,25,4,,,,,,,,25,0,25,,,001,,,,,,2024.2.4,,,,,,,,,,,,Anna schept te veel hooi tegelijk op.,Anna wil meer werk doen dan ze aankan.,Anna schept te veel eten op haar bord.,,,,,,,,,,,,,,,2025-04-04 15h48.35.445944 +0200,,,2025-04-04_15h48.27.831,
experimental,5,,1,Anna neemt te veel hooi op haar vork.,hooi,4,0.46654010005295277,,,,,,,,,,,,,,,,,,,671836,,,,,,,,59.58246989538451,metaphors,,,,25,0,25,4,,,,,,,,25,0,25,,,001,,,,,,2024.2.4,,,,,,,,,,,,Anna schept te veel hooi tegelijk op.,Anna wil meer werk doen dan ze aankan.,Anna schept te veel eten op haar bord.,,,,,,,,,,,,,,,2025-04-04 15h48.35.445944 +0200,,,2025-04-04_15h48.27.831,
experimental,5,,1,Anna neemt te veel hooi op haar vork.,op,5,0.3665804999182001,,,,,,,,,,,,,,,,,,,671836,,,,,,,,59.58246989538451,metaphors,,,,25,0,25,4,,,,,,,,25,0,25,,,001,,,,,,2024.2.4,,,,,,,,,,,,Anna schept te veel hooi tegelijk op.,Anna wil meer werk doen dan ze aankan.,Anna schept te veel eten op haar bord.,,,,,,,,,,,,,,,2025-04-04 15h48.35.445944 +0200,,,2025-04-04_15h48.27.831,
experimental,5,,1,Anna neemt te veel hooi op haar vork.,haar,6,0.4659668999956921,,,,,,,,,,,,,,,,,,,671836,,,,,,,,59.58246989538451,metaphors,,,,25,0,25,4,,,,,,,,25,0,25,,,001,,,,,,2024.2.4,,,,,,,,,,,,Anna schept te veel hooi tegelijk op.,Anna wil meer werk doen dan ze aankan.,Anna schept te veel eten op haar bord.,,,,,,,,,,,,,,,2025-04-04 15h48.35.445944 +0200,,,2025-04-04_15h48.27.831,
experimental,5,,1,Anna neemt te veel hooi op haar vork.,vork.,7,0.7506450000219047,,,,,,,,,,,,,,,,,,,671836,,,,,,,,59.58246989538451,metaphors,,,,25,0,25,4,,,,,,,,25,0,25,,,001,,,,,,2024.2.4,,,,,,,,,,,,Anna schept te veel hooi tegelijk op.,Anna wil meer werk doen dan ze aankan.,Anna schept te veel eten op haar bord.,,,,,,,,,,,,,,,2025-04-04 15h48.35.445944 +0200,,,2025-04-04_15h48.27.831,
experimental,5,,1,Anna neemt te veel hooi op haar vork.,,,,1,idiomatic,4.236627699923702,space,4.353849600069225,c,,None,4.236627699923702,space,4.353849600069225,c,,,,,,None,671836,,,,,,,,59.58246989538451,metaphors,,,None,25,0,25,4,None,,,,None,256.4998336000135,,25,0,25,,,001,256.52633659995627,256.52633659995627,None,260.8830775999231,256.51249889994506,2024.2.4,,,,,,,,,,260.8832302999217,260.8831932999892,Anna schept te veel hooi tegelijk op.,Anna wil meer werk doen dan ze aankan.,Anna schept te veel eten op haar bord.,,,,,,,,,,,,,,,2025-04-04 15h48.35.445944 +0200,,,2025-04-04_15h48.27.831,
filler,29,260.8939831999596,0,Het komt voor de brandweer.,Het,0,0.6329243000363931,,,,,,,,,,,,,,,,,,,671836,,,,,,,,59.58246989538451,metaphors,,,,26,0,26,28,,,261.89329099992756,261.89329099992756,,,261.88211969996337,26,0,26,,,001,,,,,,2024.2.4,,,,,,,,,,,,Er is een melding voor de brandweer.,Het komt in orde,Het is een probleem dat snel opgelost moet worden.,,,,,,,261.89329099992756,260.8939831999596,261.88196349993814,260.883447399945,,,,,2025-04-04 15h48.35.445944 +0200,,,2025-04-04_15h48.27.831,
filler,29,,0,Het komt voor de brandweer.,komt,1,0.582781899953261,,,,,,,,,,,,,,,,,,,671836,,,,,,,,59.58246989538451,metaphors,,,,26,0,26,28,,,,,,,,26,0,26,,,001,,,,,,2024.2.4,,,,,,,,,,,,Er is een melding voor de brandweer.,Het komt in orde,Het is een probleem dat snel opgelost moet worden.,,,,,,,,,,,,,,,2025-04-04 15h48.35.445944 +0200,,,2025-04-04_15h48.27.831,
filler,29,,0,Het komt voor de brandweer.,voor,2,0.3836942999623716,,,,,,,,,,,,,,,,,,,671836,,,,,,,,59.58246989538451,metaphors,,,,26,0,26,28,,,,,,,,26,0,26,,,001,,,,,,2024.2.4,,,,,,,,,,,,Er is een melding voor de brandweer.,Het komt in orde,Het is een probleem dat snel opgelost moet worden.,,,,,,,,,,,,,,,2025-04-04 15h48.35.445944 +0200,,,2025-04-04_15h48.27.831,
filler,29,,0,Het komt voor de brandweer.,de,3,0.582951300079003,,,,,,,,,,,,,,,,,,,671836,,,,,,,,59.58246989538451,metaphors,,,,26,0,26,28,,,,,,,,26,0,26,,,001,,,,,,2024.2.4,,,,,,,,,,,,Er is een melding voor de brandweer.,Het komt in orde,Het is een probleem dat snel opgelost moet worden.,,,,,,,,,,,,,,,2025-04-04 15h48.35.445944 +0200,,,2025-04-04_15h48.27.831,
filler,29,,0,Het komt voor de brandweer.,brandweer.,4,0.8001886999700218,,,,,,,,,,,,,,,,,,,671836,,,,,,,,59.58246989538451,metaphors,,,,26,0,26,28,,,,,,,,26,0,26,,,001,,,,,,2024.2.4,,,,,,,,,,,,Er is een melding voor de brandweer.,Het komt in orde,Het is een probleem dat snel opgelost moet worden.,,,,,,,,,,,,,,,2025-04-04 15h48.35.445944 +0200,,,2025-04-04_15h48.27.831,
filler,29,,0,Het komt voor de brandweer.,,,,1,literal,2.9691351999063045,space,2.3926900000078604,c,,None,2.9691351999063045,space,2.3926900000078604,c,,,,,,None,671836,,,,,,,,59.58246989538451,metaphors,,,None,26,0,26,28,None,,,,None,264.8662616999354,,26,0,26,,,001,264.8932763999328,264.8932763999328,None,267.29923260002397,264.87871029996313,2024.2.4,,,,,,,,,,267.2993836000096,267.29934729996603,Er is een melding voor de brandweer.,Het komt in orde,Het is een probleem dat snel opgelost moet worden.,,,,,,,,,,,,,,,2025-04-04 15h48.35.445944 +0200,,,2025-04-04_15h48.27.831,
experimental,14,267.3097424999578,0,Sofie maakt er een potje van.,Sofie,0,0.5327303999802098,,,,,,,,,,,,,,,,,,,671836,,,,,,,,59.58246989538451,metaphors,,,,27,0,27,13,,,268.3101306000026,268.3101306000026,,,268.2982817000011,27,0,27,,,001,,,,,,2024.2.4,,,,,,,,,,,,Sofie stopt iets in een potje.,Sofie laat het mislukken.,Sofie bewaart eten voor later.,,,,,,,268.3101306000026,267.3097424999578,268.2981464000186,267.2995970000047,,,,,2025-04-04 15h48.35.445944 +0200,,,2025-04-04_15h48.27.831,
experimental,14,,0,Sofie maakt er een potje van.,maakt,1,0.38326709996908903,,,,,,,,,,,,,,,,,,,671836,,,,,,,,59.58246989538451,metaphors,,,,27,0,27,13,,,,,,,,27,0,27,,,001,,,,,,2024.2.4,,,,,,,,,,,,Sofie stopt iets in een potje.,Sofie laat het mislukken.,Sofie bewaart eten voor later.,,,,,,,,,,,,,,,2025-04-04 15h48.35.445944 +0200,,,2025-04-04_15h48.27.831,
experimental,14,,0,Sofie maakt er een potje van.,er,2,0.5670527999754995,,,,,,,,,,,,,,,,,,,671836,,,,,,,,59.58246989538451,metaphors,,,,27,0,27,13,,,,,,,,27,0,27,,,001,,,,,,2024.2.4,,,,,,,,,,,,Sofie stopt iets in een potje.,Sofie laat het mislukken.,Sofie bewaart eten voor later.,,,,,,,,,,,,,,,2025-04-04 15h48.35.445944 +0200,,,2025-04-04_15h48.27.831,
experimental,14,,0,Sofie maakt er een potje van.,een,3,0.3502686000429094,,,,,,,,,,,,,,,,,,,671836,,,,,,,,59.58246989538451,metaphors,,,,27,0,27,13,,,,,,,,27,0,27,,,001,,,,,,2024.2.4,,,,,,,,,,,,Sofie stopt iets in een potje.,Sofie laat het mislukken.,Sofie bewaart eten voor later.,,,,,,,,,,,,,,,2025-04-04 15h48.35.445944 +0200,,,2025-04-04_15h48.27.831,
experimental,14,,0,Sofie maakt er een potje van.,potje,4,0.749513000017032,,,,,,,,,,,,,,,,,,,671836,,,,,,,,59.58246989538451,metaphors,,,,27,0,27,13,,,,,,,,27,0,27,,,001,,,,,,2024.2.4,,,,,,,,,,,,Sofie stopt iets in een potje.,Sofie laat het mislukken.,Sofie bewaart eten voor later.,,,,,,,,,,,,,,,2025-04-04 15h48.35.445944 +0200,,,2025-04-04_15h48.27.831,
experimental,14,,0,Sofie maakt er een potje van.,van.,5,0.5327501000138,,,,,,,,,,,,,,,,,,,671836,,,,,,,,59.58246989538451,metaphors,,,,27,0,27,13,,,,,,,,27,0,27,,,001,,,,,,2024.2.4,,,,,,,,,,,,Sofie stopt iets in een potje.,Sofie laat het mislukken.,Sofie bewaart eten voor later.,,,,,,,,,,,,,,,2025-04-04 15h48.35.445944 +0200,,,2025-04-04_15h48.27.831,
experimental,14,,0,Sofie maakt er een potje van.,,,,1,idiomatic,3.087779000052251,space,2.4578300000866875,c,,None,3.087779000052251,space,2.4578300000866875,c,,,,,,None,671836,,,,,,,,59.58246989538451,metaphors,,,None,27,0,27,13,None,,,,None,271.41537439997774,,27,0,27,,,001,271.44298689998686,271.44298689998686,None,273.915787099977,271.4267488999758,2024.2.4,,,,,,,,,,273.91593599994667,273.91589990002103,Sofie stopt iets in een potje.,Sofie laat het mislukken.,Sofie bewaart eten voor later.,,,,,,,,,,,,,,,2025-04-04 15h48.35.445944 +0200,,,2025-04-04_15h48.27.831,
experimental,4,273.92667319998145,1,Pieter gaf Daan een trap na.,Pieter,0,0.6330770999193192,,,,,,,,,,,,,,,,,,,671836,,,,,,,,59.58246989538451,metaphors,,,,28,0,28,3,,,274.9266818999313,274.9266818999313,,,274.9146744000027,28,0,28,,,001,,,,,,2024.2.4,,,,,,,,,,,,Pieter gaf Daan nog een schop.,Pieter kwetste Daan nog eens extra.,Pieter motiveerde Daan nog eens extra.,,,,,,,274.9266818999313,273.92667319998145,274.91454049991444,273.91614769992884,,,,,2025-04-04 15h48.35.445944 +0200,,,2025-04-04_15h48.27.831,
experimental,4,,1,Pieter gaf Daan een trap na.,gaf,1,0.6175994999939576,,,,,,,,,,,,,,,,,,,671836,,,,,,,,59.58246989538451,metaphors,,,,28,0,28,3,,,,,,,,28,0,28,,,001,,,,,,2024.2.4,,,,,,,,,,,,Pieter gaf Daan nog een schop.,Pieter kwetste Daan nog eens extra.,Pieter motiveerde Daan nog eens extra.,,,,,,,,,,,,,,,2025-04-04 15h48.35.445944 +0200,,,2025-04-04_15h48.27.831,
experimental,4,,1,Pieter gaf Daan een trap na.,Daan,2,0.5663247000193223,,,,,,,,,,,,,,,,,,,671836,,,,,,,,59.58246989538451,metaphors,,,,28,0,28,3,,,,,,,,28,0,28,,,001,,,,,,2024.2.4,,,,,,,,,,,,Pieter gaf Daan nog een schop.,Pieter kwetste Daan nog eens extra.,Pieter motiveerde Daan nog eens extra.,,,,,,,,,,,,,,,2025-04-04 15h48.35.445944 +0200,,,2025-04-04_15h48.27.831,
experimental,4,,1,Pieter gaf Daan een trap na.,een,3,0.4331527999602258,,,,,,,,,,,,,,,,,,,671836,,,,,,,,59.58246989538451,metaphors,,,,28,0,28,3,,,,,,,,28,0,28,,,001,,,,,,2024.2.4,,,,,,,,,,,,Pieter gaf Daan nog een schop.,Pieter kwetste Daan nog eens extra.,Pieter motiveerde Daan nog eens extra.,,,,,,,,,,,,,,,2025-04-04 15h48.35.445944 +0200,,,2025-04-04_15h48.27.831,
experimental,4,,1,Pieter gaf Daan een trap na.,trap,4,0.6833620000397786,,,,,,,,,,,,,,,,,,,671836,,,,,,,,59.58246989538451,metaphors,,,,28,0,28,3,,,,,,,,28,0,28,,,001,,,,,,2024.2.4,,,,,,,,,,,,Pieter gaf Daan nog een schop.,Pieter kwetste Daan nog eens extra.,Pieter motiveerde Daan nog eens extra.,,,,,,,,,,,,,,,2025-04-04 15h48.35.445944 +0200,,,2025-04-04_15h48.27.831,
experimental,4,,1,Pieter gaf Daan een trap na.,na.,5,0.5996506999945268,,,,,,,,,,,,,,,,,,,671836,,,,,,,,59.58246989538451,metaphors,,,,28,0,28,3,,,,,,,,28,0,28,,,001,,,,,,2024.2.4,,,,,,,,,,,,Pieter gaf Daan nog een schop.,Pieter kwetste Daan nog eens extra.,Pieter motiveerde Daan nog eens extra.,,,,,,,,,,,,,,,2025-04-04 15h48.35.445944 +0200,,,2025-04-04_15h48.27.831,
experimental,4,,1,Pieter gaf Daan een trap na.,,,,1,idiomatic,3.5095889000222087,space,4.747613499988802,c,,None,3.5095889000222087,space,4.747613499988802,c,,,,,,None,671836,,,,,,,,59.58246989538451,metaphors,,,None,28,0,28,3,None,,,,None,278.4496479999507,,28,0,28,,,001,278.4759104999248,278.4759104999248,None,283.23252139997203,278.46268969995435,2024.2.4,,,,,,,,,,283.23267319996376,283.2326372999232,Pieter gaf Daan nog een schop.,Pieter kwetste Daan nog eens extra.,Pieter motiveerde Daan nog eens extra.,,,,,,,,,,,,,,,2025-04-04 15h48.35.445944 +0200,,,2025-04-04_15h48.27.831,
filler,30,283.243091500015,0,Gijs kan het op zijn arm schrijven.,Gijs,0,0.4822821000125259,,,,,,,,,,,,,,,,,,,671836,,,,,,,,59.58246989538451,metaphors,,,,29,0,29,29,,,284.243506000028,284.243506000028,,,284.23145700001623,29,0,29,,,001,,,,,,2024.2.4,,,,,,,,,,,,Gijs kan iets op zijn arm schrijven.,Gijs krijgt niet wat hij hebben wil.,"Gijs schrijft het op, zodat hij het niet vergeet.",,,,,,,284.243506000028,283.243091500015,284.23131259996444,283.23288899997715,,,,,2025-04-04 15h48.35.445944 +0200,,,2025-04-04_15h48.27.831,
filler,30,,0,Gijs kan het op zijn arm schrijven.,kan,1,0.4006778000621125,,,,,,,,,,,,,,,,,,,671836,,,,,,,,59.58246989538451,metaphors,,,,29,0,29,29,,,,,,,,29,0,29,,,001,,,,,,2024.2.4,,,,,,,,,,,,Gijs kan iets op zijn arm schrijven.,Gijs krijgt niet wat hij hebben wil.,"Gijs schrijft het op, zodat hij het niet vergeet.",,,,,,,,,,,,,,,2025-04-04 15h48.35.445944 +0200,,,2025-04-04_15h48.27.831,
filler,30,,0,Gijs kan het op zijn arm schrijven.,het,2,0.566429500002414,,,,,,,,,,,,,,,,,,,671836,,,,,,,,59.58246989538451,metaphors,,,,29,0,29,29,,,,,,,,29,0,29,,,001,,,,,,2024.2.4,,,,,,,,,,,,Gijs kan iets op zijn arm schrijven.,Gijs krijgt niet wat hij hebben wil.,"Gijs schrijft het op, zodat hij het niet vergeet.",,,,,,,,,,,,,,,2025-04-04 15h48.35.445944 +0200,,,2025-04-04_15h48.27.831,
filler,30,,0,Gijs kan het op zijn arm schrijven.,op,3,0.48271579993888736,,,,,,,,,,,,,,,,,,,671836,,,,,,,,59.58246989538451,metaphors,,,,29,0,29,29,,,,,,,,29,0,29,,,001,,,,,,2024.2.4,,,,,,,,,,,,Gijs kan iets op zijn arm schrijven.,Gijs krijgt niet wat hij hebben wil.,"Gijs schrijft het op, zodat hij het niet vergeet.",,,,,,,,,,,,,,,2025-04-04 15h48.35.445944 +0200,,,2025-04-04_15h48.27.831,
filler,30,,0,Gijs kan het op zijn arm schrijven.,zijn,4,0.5505846999585629,,,,,,,,,,,,,,,,,,,671836,,,,,,,,59.58246989538451,metaphors,,,,29,0,29,29,,,,,,,,29,0,29,,,001,,,,,,2024.2.4,,,,,,,,,,,,Gijs kan iets op zijn arm schrijven.,Gijs krijgt niet wat hij hebben wil.,"Gijs schrijft het op, zodat hij het niet vergeet.",,,,,,,,,,,,,,,2025-04-04 15h48.35.445944 +0200,,,2025-04-04_15h48.27.831,
filler,30,,0,Gijs kan het op zijn arm schrijven.,arm,5,0.5495642999885604,,,,,,,,,,,,,,,,,,,671836,,,,,,,,59.58246989538451,metaphors,,,,29,0,29,29,,,,,,,,29,0,29,,,001,,,,,,2024.2.4,,,,,,,,,,,,Gijs kan iets op zijn arm schrijven.,Gijs krijgt niet wat hij hebben wil.,"Gijs schrijft het op, zodat hij het niet vergeet.",,,,,,,,,,,,,,,2025-04-04 15h48.35.445944 +0200,,,2025-04-04_15h48.27.831,
filler,30,,0,Gijs kan het op zijn arm schrijven.,schrijven.,6,0.7832930000731722,,,,,,,,,,,,,,,,,,,671836,,,,,,,,59.58246989538451,metaphors,,,,29,0,29,29,,,,,,,,29,0,29,,,001,,,,,,2024.2.4,,,,,,,,,,,,Gijs kan iets op zijn arm schrijven.,Gijs krijgt niet wat hij hebben wil.,"Gijs schrijft het op, zodat hij het niet vergeet.",,,,,,,,,,,,,,,2025-04-04 15h48.35.445944 +0200,,,2025-04-04_15h48.27.831,
filler,30,,0,Gijs kan het op zijn arm schrijven.,,,,1,literal,3.8022230999777094,space,5.061166399973445,c,,None,3.8022230999777094,space,5.061166399973445,c,,,,,,None,671836,,,,,,,,59.58246989538451,metaphors,,,None,29,0,29,29,None,,,,None,288.04880929994397,,29,0,29,,,001,288.0761625999585,288.0761625999585,None,293.149409799953,288.06192419992294,2024.2.4,,,,,,,,,,293.14955999993253,293.1495234000031,Gijs kan iets op zijn arm schrijven.,Gijs krijgt niet wat hij hebben wil.,"Gijs schrijft het op, zodat hij het niet vergeet.",,,,,,,,,,,,,,,2025-04-04 15h48.35.445944 +0200,,,2025-04-04_15h48.27.831,
experimental,11,293.1601386999246,0,Sarah heeft het onder de knie.,Sarah,0,0.5663745999336243,,,,,,,,,,,,,,,,,,,671836,,,,,,,,59.58246989538451,metaphors,,,,30,0,30,10,,,294.1595376000041,294.1595376000041,,,294.14800559997093,30,0,30,,,001,,,,,,2024.2.4,,,,,,,,,,,,Sarah heeft iets onder haar knie zitten.,Sarah is er goed in.,Sarah heeft er controle over.,,,,,,,294.1595376000041,293.1601386999246,294.14786399994045,293.1497766999528,,,,,2025-04-04 15h48.35.445944 +0200,,,2025-04-04_15h48.27.831,
experimental,11,,0,Sarah heeft het onder de knie.,heeft,1,0.4495200999081135,,,,,,,,,,,,,,,,,,,671836,,,,,,,,59.58246989538451,metaphors,,,,30,0,30,10,,,,,,,,30,0,30,,,001,,,,,,2024.2.4,,,,,,,,,,,,Sarah heeft iets onder haar knie zitten.,Sarah is er goed in.,Sarah heeft er controle over.,,,,,,,,,,,,,,,2025-04-04 15h48.35.445944 +0200,,,2025-04-04_15h48.27.831,
experimental,11,,0,Sarah heeft het onder de knie.,het,2,0.6501655000029132,,,,,,,,,,,,,,,,,,,671836,,,,,,,,59.58246989538451,metaphors,,,,30,0,30,10,,,,,,,,30,0,30,,,001,,,,,,2024.2.4,,,,,,,,,,,,Sarah heeft iets onder haar knie zitten.,Sarah is er goed in.,Sarah heeft er controle over.,,,,,,,,,,,,,,,2025-04-04 15h48.35.445944 +0200,,,2025-04-04_15h48.27.831,
experimental,11,,0,Sarah heeft het onder de knie.,onder,3,0.38353240001015365,,,,,,,,,,,,,,,,,,,671836,,,,,,,,59.58246989538451,metaphors,,,,30,0,30,10,,,,,,,,30,0,30,,,001,,,,,,2024.2.4,,,,,,,,,,,,Sarah heeft iets onder haar knie zitten.,Sarah is er goed in.,Sarah heeft er controle over.,,,,,,,,,,,,,,,2025-04-04 15h48.35.445944 +0200,,,2025-04-04_15h48.27.831,
experimental,11,,0,Sarah heeft het onder de knie.,de,4,0.44971559999976307,,,,,,,,,,,,,,,,,,,671836,,,,,,,,59.58246989538451,metaphors,,,,30,0,30,10,,,,,,,,30,0,30,,,001,,,,,,2024.2.4,,,,,,,,,,,,Sarah heeft iets onder haar knie zitten.,Sarah is er goed in.,Sarah heeft er controle over.,,,,,,,,,,,,,,,2025-04-04 15h48.35.445944 +0200,,,2025-04-04_15h48.27.831,
experimental,11,,0,Sarah heeft het onder de knie.,knie.,5,0.6162471999414265,,,,,,,,,,,,,,,,,,,671836,,,,,,,,59.58246989538451,metaphors,,,,30,0,30,10,,,,,,,,30,0,30,,,001,,,,,,2024.2.4,,,,,,,,,,,,Sarah heeft iets onder haar knie zitten.,Sarah is er goed in.,Sarah heeft er controle over.,,,,,,,,,,,,,,,2025-04-04 15h48.35.445944 +0200,,,2025-04-04_15h48.27.831,
experimental,11,,0,Sarah heeft het onder de knie.,,,,1,idiomatic,3.093265400035307,space,7.374495800002478,a,,None,3.093265400035307,space,7.374495800002478,a,,,,,,None,671836,,,,,,,,59.58246989538451,metaphors,,,None,30,0,30,10,None,,,,None,297.2652841999661,,30,0,30,,,001,297.29215719993226,297.29215719993226,None,304.68160499993246,297.27670819999184,2024.2.4,,,,,,,,,,304.6817562999204,304.68171939998865,Sarah heeft iets onder haar knie zitten.,Sarah is er goed in.,Sarah heeft er controle over.,,,,,,,,,,,,,,,2025-04-04 15h48.35.445944 +0200,,,2025-04-04_15h48.27.831,
experimental,8,304.69346939993557,1,Marit heeft het bij het verkeerde eind.,Marit,0,0.5328190999571234,,,,,,,,,,,,,,,,,,,671836,,,,,,,,59.58246989538451,metaphors,,,,31,0,31,7,,,305.69265729992185,305.69265729992185,,,305.68114060000516,31,0,31,,,001,,,,,,2024.2.4,,,,,,,,,,,,Marit houdt iets aan de verkeerde kant vast.,Marit heeft ongelijk.,Marit heeft de verkeerde afslag genomen.,,,,,,,305.69265729992185,304.69346939993557,305.68099339993205,304.6819701999193,,,,,2025-04-04 15h48.35.445944 +0200,,,2025-04-04_15h48.27.831,
experimental,8,,1,Marit heeft het bij het verkeerde eind.,heeft,1,0.36640150006860495,,,,,,,,,,,,,,,,,,,671836,,,,,,,,59.58246989538451,metaphors,,,,31,0,31,7,,,,,,,,31,0,31,,,001,,,,,,2024.2.4,,,,,,,,,,,,Marit houdt iets aan de verkeerde kant vast.,Marit heeft ongelijk.,Marit heeft de verkeerde afslag genomen.,,,,,,,,,,,,,,,2025-04-04 15h48.35.445944 +0200,,,2025-04-04_15h48.27.831,
experimental,8,,1,Marit heeft het bij het verkeerde eind.,het,2,0.46914020006079227,,,,,,,,,,,,,,,,,,,671836,,,,,,,,59.58246989538451,metaphors,,,,31,0,31,7,,,,,,,,31,0,31,,,001,,,,,,2024.2.4,,,,,,,,,,,,Marit houdt iets aan de verkeerde kant vast.,Marit heeft ongelijk.,Marit heeft de verkeerde afslag genomen.,,,,,,,,,,,,,,,2025-04-04 15h48.35.445944 +0200,,,2025-04-04_15h48.27.831,
experimental,8,,1,Marit heeft het bij het verkeerde eind.,bij,3,0.3307825999800116,,,,,,,,,,,,,,,,,,,671836,,,,,,,,59.58246989538451,metaphors,,,,31,0,31,7,,,,,,,,31,0,31,,,001,,,,,,2024.2.4,,,,,,,,,,,,Marit houdt iets aan de verkeerde kant vast.,Marit heeft ongelijk.,Marit heeft de verkeerde afslag genomen.,,,,,,,,,,,,,,,2025-04-04 15h48.35.445944 +0200,,,2025-04-04_15h48.27.831,
experimental,8,,1,Marit heeft het bij het verkeerde eind.,het,4,0.3331539999926463,,,,,,,,,,,,,,,,,,,671836,,,,,,,,59.58246989538451,metaphors,,,,31,0,31,7,,,,,,,,31,0,31,,,001,,,,,,2024.2.4,,,,,,,,,,,,Marit houdt iets aan de verkeerde kant vast.,Marit heeft ongelijk.,Marit heeft de verkeerde afslag genomen.,,,,,,,,,,,,,,,2025-04-04 15h48.35.445944 +0200,,,2025-04-04_15h48.27.831,
experimental,8,,1,Marit heeft het bij het verkeerde eind.,verkeerde,5,0.46724540006835014,,,,,,,,,,,,,,,,,,,671836,,,,,,,,59.58246989538451,metaphors,,,,31,0,31,7,,,,,,,,31,0,31,,,001,,,,,,2024.2.4,,,,,,,,,,,,Marit houdt iets aan de verkeerde kant vast.,Marit heeft ongelijk.,Marit heeft de verkeerde afslag genomen.,,,,,,,,,,,,,,,2025-04-04 15h48.35.445944 +0200,,,2025-04-04_15h48.27.831,
experimental,8,,1,Marit heeft het bij het verkeerde eind.,eind.,6,0.46600080002099276,,,,,,,,,,,,,,,,,,,671836,,,,,,,,59.58246989538451,metaphors,,,,31,0,31,7,,,,,,,,31,0,31,,,001,,,,,,2024.2.4,,,,,,,,,,,,Marit houdt iets aan de verkeerde kant vast.,Marit heeft ongelijk.,Marit heeft de verkeerde afslag genomen.,,,,,,,,,,,,,,,2025-04-04 15h48.35.445944 +0200,,,2025-04-04_15h48.27.831,
